Time,header.seq,header.stamp.secs,header.stamp.nsecs,header.frame_id,orientation.x,orientation.y,orientation.z,orientation.w,orientation_covariance_0,orientation_covariance_1,orientation_covariance_2,orientation_covariance_3,orientation_covariance_4,orientation_covariance_5,orientation_covariance_6,orientation_covariance_7,orientation_covariance_8,angular_velocity.x,angular_velocity.y,angular_velocity.z,angular_velocity_covariance_0,angular_velocity_covariance_1,angular_velocity_covariance_2,angular_velocity_covariance_3,angular_velocity_covariance_4,angular_velocity_covariance_5,angular_velocity_covariance_6,angular_velocity_covariance_7,angular_velocity_covariance_8,linear_acceleration.x,linear_acceleration.y,linear_acceleration.z,linear_acceleration_covariance_0,linear_acceleration_covariance_1,linear_acceleration_covariance_2,linear_acceleration_covariance_3,linear_acceleration_covariance_4,linear_acceleration_covariance_5,linear_acceleration_covariance_6,linear_acceleration_covariance_7,linear_acceleration_covariance_8
1639064112.3590393,165270,1639064112,342815676,base_imu,0.0,0.0,0.0,0.0,0.0,0.0,0.0,0.0,0.0,0.0,0.0,0.0,0.0,-0.5809686183929443,1.1022824048995972,0.8064051866531372,0.0,0.0,0.0,0.0,0.0,0.0,0.0,0.0,0.0,-6.294356346130371,0.8068459630012512,-1.302445650100708,0.0,0.0,0.0,0.0,0.0,0.0,0.0,0.0,0.0
1639064112.3592722,165271,1639064112,352748473,base_imu,0.0,0.0,0.0,0.0,0.0,0.0,0.0,0.0,0.0,0.0,0.0,0.0,0.0,-0.5680522322654724,1.2271846532821655,0.8249141573905945,0.0,0.0,0.0,0.0,0.0,0.0,0.0,0.0,0.0,-4.580107688903809,-0.31124621629714966,-2.456450939178467,0.0,0.0,0.0,0.0,0.0,0.0,0.0,0.0,0.0
1639064112.3669703,165272,1639064112,362730269,base_imu,0.0,0.0,0.0,0.0,0.0,0.0,0.0,0.0,0.0,0.0,0.0,0.0,0.0,-0.5250422358512878,1.3961621522903442,0.6107959747314453,0.0,0.0,0.0,0.0,0.0,0.0,0.0,0.0,0.0,-4.63517427444458,-1.1731587648391724,-2.9664158821105957,0.0,0.0,0.0,0.0,0.0,0.0,0.0,0.0,0.0
1639064112.375928,165273,1639064112,372737065,base_imu,0.0,0.0,0.0,0.0,0.0,0.0,0.0,0.0,0.0,0.0,0.0,0.0,0.0,-0.39441415667533875,1.4229270219802856,0.3254382908344269,0.0,0.0,0.0,0.0,0.0,0.0,0.0,0.0,0.0,-4.51067590713501,-2.765302896499634,-3.1004910469055176,0.0,0.0,0.0,0.0,0.0,0.0,0.0,0.0,0.0
1639064112.38565,165274,1639064112,382776860,base_imu,0.0,0.0,0.0,0.0,0.0,0.0,0.0,0.0,0.0,0.0,0.0,0.0,0.0,-0.26338663697242737,1.3257216215133667,0.08588694781064987,0.0,0.0,0.0,0.0,0.0,0.0,0.0,0.0,0.0,-4.55616569519043,-4.491522312164307,-2.8371288776397705,0.0,0.0,0.0,0.0,0.0,0.0,0.0,0.0,0.0
1639064112.4100223,165275,1639064112,404545416,base_imu,0.0,0.0,0.0,0.0,0.0,0.0,0.0,0.0,0.0,0.0,0.0,0.0,0.0,-0.18815232813358307,1.1124024391174316,-0.03422161936759949,0.0,0.0,0.0,0.0,0.0,0.0,0.0,0.0,0.0,-4.54419469833374,-5.983109951019287,-2.3104045391082764,0.0,0.0,0.0,0.0,0.0,0.0,0.0,0.0,0.0
1639064112.4151042,165276,1639064112,408929326,base_imu,0.0,0.0,0.0,0.0,0.0,0.0,0.0,0.0,0.0,0.0,0.0,0.0,0.0,-0.1619201898574829,0.8353005051612854,0.0878843143582344,0.0,0.0,0.0,0.0,0.0,0.0,0.0,0.0,0.0,-3.9169139862060547,-7.953537940979004,-1.867477297782898,0.0,0.0,0.0,0.0,0.0,0.0,0.0,0.0,0.0
1639064112.422378,165277,1639064112,419843103,base_imu,0.0,0.0,0.0,0.0,0.0,0.0,0.0,0.0,0.0,0.0,0.0,0.0,0.0,-0.047271110117435455,0.6364954710006714,0.2147839367389679,0.0,0.0,0.0,0.0,0.0,0.0,0.0,0.0,0.0,-2.8802247047424316,-9.763554573059082,-1.8818424940109253,0.0,0.0,0.0,0.0,0.0,0.0,0.0,0.0,0.0
1639064112.4285939,165278,1639064112,426062976,base_imu,0.0,0.0,0.0,0.0,0.0,0.0,0.0,0.0,0.0,0.0,0.0,0.0,0.0,0.13036173582077026,0.5205148458480835,0.20293287932872772,0.0,0.0,0.0,0.0,0.0,0.0,0.0,0.0,0.0,-2.1547815799713135,-10.627861022949219,-1.8076221942901611,0.0,0.0,0.0,0.0,0.0,0.0,0.0,0.0,0.0
1639064112.4414437,165279,1639064112,433836817,base_imu,0.0,0.0,0.0,0.0,0.0,0.0,0.0,0.0,0.0,0.0,0.0,0.0,0.0,0.44621264934539795,0.40892839431762695,0.03621898964047432,0.0,0.0,0.0,0.0,0.0,0.0,0.0,0.0,0.0,-1.5634137392044067,-10.903194427490234,-1.5945383310317993,0.0,0.0,0.0,0.0,0.0,0.0,0.0,0.0,0.0
1639064112.4514894,165280,1639064112,447222544,base_imu,0.0,0.0,0.0,0.0,0.0,0.0,0.0,0.0,0.0,0.0,0.0,0.0,0.0,0.9942911863327026,0.30186930298805237,-0.42823630571365356,0.0,0.0,0.0,0.0,0.0,0.0,0.0,0.0,0.0,-1.946485996246338,-9.495404243469238,-1.0414776802062988,0.0,0.0,0.0,0.0,0.0,0.0,0.0,0.0,0.0
1639064112.4591434,165281,1639064112,456559354,base_imu,0.0,0.0,0.0,0.0,0.0,0.0,0.0,0.0,0.0,0.0,0.0,0.0,0.0,1.2712599039077759,0.26152241230010986,-0.6881608366966248,0.0,0.0,0.0,0.0,0.0,0.0,0.0,0.0,0.0,-2.578555107116699,-8.372523307800293,-0.8547300100326538,0.0,0.0,0.0,0.0,0.0,0.0,0.0,0.0,0.0
1639064112.4651592,165282,1639064112,462833225,base_imu,0.0,0.0,0.0,0.0,0.0,0.0,0.0,0.0,0.0,0.0,0.0,0.0,0.0,1.6335830688476562,0.18628811836242676,-1.0048106908798218,0.0,0.0,0.0,0.0,0.0,0.0,0.0,0.0,0.0,-3.8714241981506348,-6.7492547035217285,-0.4357447028160095,0.0,0.0,0.0,0.0,0.0,0.0,0.0,0.0,0.0
1639064112.4746299,165283,1639064112,472817022,base_imu,0.0,0.0,0.0,0.0,0.0,0.0,0.0,0.0,0.0,0.0,0.0,0.0,0.0,1.9524965286254883,0.012916331179440022,-1.2819125652313232,0.0,0.0,0.0,0.0,0.0,0.0,0.0,0.0,0.0,-5.87776517868042,-4.584896087646484,-0.5363011956214905,0.0,0.0,0.0,0.0,0.0,0.0,0.0,0.0,0.0
1639064112.4942687,165284,1639064112,482802818,base_imu,0.0,0.0,0.0,0.0,0.0,0.0,0.0,0.0,0.0,0.0,0.0,0.0,0.0,2.013749361038208,-0.44847631454467773,-1.3274526596069336,0.0,0.0,0.0,0.0,0.0,0.0,0.0,0.0,0.0,-8.169015884399414,-1.7334020137786865,0.2992752194404602,0.0,0.0,0.0,0.0,0.0,0.0,0.0,0.0,0.0
1639064112.4986565,165285,1639064112,496348541,base_imu,0.0,0.0,0.0,0.0,0.0,0.0,0.0,0.0,0.0,0.0,0.0,0.0,0.0,1.8413095474243164,-0.9458216428756714,-1.1404987573623657,0.0,0.0,0.0,0.0,0.0,0.0,0.0,0.0,0.0,-10.055646896362305,2.8371288776397705,0.7876923680305481,0.0,0.0,0.0,0.0,0.0,0.0,0.0,0.0,0.0
1639064112.5040984,165286,1639064112,502736411,base_imu,0.0,0.0,0.0,0.0,0.0,0.0,0.0,0.0,0.0,0.0,0.0,0.0,0.0,1.8534269332885742,-0.8491489291191101,-1.0745855569839478,0.0,0.0,0.0,0.0,0.0,0.0,0.0,0.0,0.0,-12.337321281433105,6.279991149902344,-0.1867477297782898,0.0,0.0,0.0,0.0,0.0,0.0,0.0,0.0,0.0
1639064112.5140471,165287,1639064112,512735207,base_imu,0.0,0.0,0.0,0.0,0.0,0.0,0.0,0.0,0.0,0.0,0.0,0.0,0.0,2.6546390056610107,-0.8424910306930542,-1.4223943948745728,0.0,0.0,0.0,0.0,0.0,0.0,0.0,0.0,0.0,-16.031574249267578,18.4066219329834,-5.116408824920654,0.0,0.0,0.0,0.0,0.0,0.0,0.0,0.0,0.0
1639064112.524136,165288,1639064112,522742002,base_imu,0.0,0.0,0.0,0.0,0.0,0.0,0.0,0.0,0.0,0.0,0.0,0.0,0.0,2.642521619796753,-1.349157452583313,-2.237854242324829,0.0,0.0,0.0,0.0,0.0,0.0,0.0,0.0,0.0,-17.86313819885254,19.612701416015625,-3.220201253890991,0.0,0.0,0.0,0.0,0.0,0.0,0.0,0.0,0.0
1639064112.5342438,165289,1639064112,532799797,base_imu,0.0,0.0,0.0,0.0,0.0,0.0,0.0,0.0,0.0,0.0,0.0,0.0,0.0,1.4458301067352295,-2.1443772315979004,-3.1655664443969727,0.0,0.0,0.0,0.0,0.0,0.0,0.0,0.0,0.0,-15.358803749084473,19.612701416015625,2.451662540435791,0.0,0.0,0.0,0.0,0.0,0.0,0.0,0.0,0.0
1639064112.5483506,165290,1639064112,542727594,base_imu,0.0,0.0,0.0,0.0,0.0,0.0,0.0,0.0,0.0,0.0,0.0,0.0,0.0,0.25553029775619507,-1.1655324697494507,-3.8911447525024414,0.0,0.0,0.0,0.0,0.0,0.0,0.0,0.0,0.0,-14.25268268585205,19.612701416015625,2.7054479122161865,0.0,0.0,0.0,0.0,0.0,0.0,0.0,0.0,0.0
1639064112.565953,165291,1639064112,552818388,base_imu,0.0,0.0,0.0,0.0,0.0,0.0,0.0,0.0,0.0,0.0,0.0,0.0,0.0,0.05699164792895317,-0.46658581495285034,-4.05186653137207,0.0,0.0,0.0,0.0,0.0,0.0,0.0,0.0,0.0,-19.613300323486328,18.03791618347168,7.271190643310547,0.0,0.0,0.0,0.0,0.0,0.0,0.0,0.0,0.0
1639064112.582023,165292,1639064112,569646045,base_imu,0.0,0.0,0.0,0.0,0.0,0.0,0.0,0.0,0.0,0.0,0.0,0.0,0.0,1.5893745422363281,-1.7714016437530518,-3.8265631198883057,0.0,0.0,0.0,0.0,0.0,0.0,0.0,0.0,0.0,-19.613300323486328,16.814477920532227,2.6001029014587402,0.0,0.0,0.0,0.0,0.0,0.0,0.0,0.0,0.0
1639064112.5852077,165293,1639064112,581442804,base_imu,0.0,0.0,0.0,0.0,0.0,0.0,0.0,0.0,0.0,0.0,0.0,0.0,0.0,2.644785165786743,-2.349041223526001,-3.4633078575134277,0.0,0.0,0.0,0.0,0.0,0.0,0.0,0.0,0.0,-19.613300323486328,15.121777534484863,1.4149731397628784,0.0,0.0,0.0,0.0,0.0,0.0,0.0,0.0,0.0
1639064112.6053972,165294,1639064112,588526659,base_imu,0.0,0.0,0.0,0.0,0.0,0.0,0.0,0.0,0.0,0.0,0.0,0.0,0.0,2.948518753051758,-2.6875290870666504,-3.061569929122925,0.0,0.0,0.0,0.0,0.0,0.0,0.0,0.0,0.0,-19.613300323486328,14.896722793579102,1.6328455209732056,0.0,0.0,0.0,0.0,0.0,0.0,0.0,0.0,0.0
1639064112.6107802,165295,1639064112,608724247,base_imu,0.0,0.0,0.0,0.0,0.0,0.0,0.0,0.0,0.0,0.0,0.0,0.0,0.0,2.072871446609497,-2.7389280796051025,-2.7840685844421387,0.0,0.0,0.0,0.0,0.0,0.0,0.0,0.0,0.0,-18.399438858032227,17.781736373901367,-1.070208191871643,0.0,0.0,0.0,0.0,0.0,0.0,0.0,0.0,0.0
1639064112.62012,165296,1639064112,618980037,base_imu,0.0,0.0,0.0,0.0,0.0,0.0,0.0,0.0,0.0,0.0,0.0,0.0,0.0,1.7216005325317383,-2.6483805179595947,-2.5923209190368652,0.0,0.0,0.0,0.0,0.0,0.0,0.0,0.0,0.0,-15.502455711364746,16.22550392150879,-1.4317325353622437,0.0,0.0,0.0,0.0,0.0,0.0,0.0,0.0,0.0
1639064112.6299827,165297,1639064112,628876835,base_imu,0.0,0.0,0.0,0.0,0.0,0.0,0.0,0.0,0.0,0.0,0.0,0.0,0.0,1.5242602825164795,-2.5301361083984375,-2.3897876739501953,0.0,0.0,0.0,0.0,0.0,0.0,0.0,0.0,0.0,-13.177685737609863,13.943830490112305,-1.5705963373184204,0.0,0.0,0.0,0.0,0.0,0.0,0.0,0.0,0.0
1639064112.6399965,165298,1639064112,638855631,base_imu,0.0,0.0,0.0,0.0,0.0,0.0,0.0,0.0,0.0,0.0,0.0,0.0,0.0,1.3968279361724854,-2.489922523498535,-2.110954523086548,0.0,0.0,0.0,0.0,0.0,0.0,0.0,0.0,0.0,-10.766724586486816,11.662156105041504,-1.5610195398330688,0.0,0.0,0.0,0.0,0.0,0.0,0.0,0.0,0.0
1639064112.6644032,165299,1639064112,654540311,base_imu,0.0,0.0,0.0,0.0,0.0,0.0,0.0,0.0,0.0,0.0,0.0,0.0,0.0,1.22239089012146,-2.3549001216888428,-1.6251940727233887,0.0,0.0,0.0,0.0,0.0,0.0,0.0,0.0,0.0,-6.4834980964660645,9.622296333312988,-2.0159177780151367,0.0,0.0,0.0,0.0,0.0,0.0,0.0,0.0,0.0
1639064112.669758,165300,1639064112,668701022,base_imu,0.0,0.0,0.0,0.0,0.0,0.0,0.0,0.0,0.0,0.0,0.0,0.0,0.0,0.9238505959510803,-2.1192104816436768,-1.3033510446548462,0.0,0.0,0.0,0.0,0.0,0.0,0.0,0.0,0.0,-3.2106244564056396,8.336609840393066,-2.6886885166168213,0.0,0.0,0.0,0.0,0.0,0.0,0.0,0.0,0.0
1639064112.6751828,165301,1639064112,674083912,base_imu,0.0,0.0,0.0,0.0,0.0,0.0,0.0,0.0,0.0,0.0,0.0,0.0,0.0,0.7523429989814758,-1.9928433895111084,-1.1962919235229492,0.0,0.0,0.0,0.0,0.0,0.0,0.0,0.0,0.0,-1.4987702369689941,8.276755332946777,-2.75812029838562,0.0,0.0,0.0,0.0,0.0,0.0,0.0,0.0,0.0
1639064112.6981115,165302,1639064112,693346519,base_imu,0.0,0.0,0.0,0.0,0.0,0.0,0.0,0.0,0.0,0.0,0.0,0.0,0.0,0.4057326018810272,-1.8548916578292847,-1.0865696668624878,0.0,0.0,0.0,0.0,0.0,0.0,0.0,0.0,0.0,-0.40940847992897034,7.304709434509277,-3.043030261993408,0.0,0.0,0.0,0.0,0.0,0.0,0.0,0.0,0.0
1639064112.7032504,165303,1639064112,702089340,base_imu,0.0,0.0,0.0,0.0,0.0,0.0,0.0,0.0,0.0,0.0,0.0,0.0,0.0,-0.31025826930999756,-1.7651431560516357,-0.9691243171691895,0.0,0.0,0.0,0.0,0.0,0.0,0.0,0.0,0.0,2.492363929748535,5.0685248374938965,-4.824316501617432,0.0,0.0,0.0,0.0,0.0,0.0,0.0,0.0,0.0
1639064112.7135222,165304,1639064112,712251133,base_imu,0.0,0.0,0.0,0.0,0.0,0.0,0.0,0.0,0.0,0.0,0.0,0.0,0.0,-0.7527424693107605,-1.612544059753418,-0.9519469141960144,0.0,0.0,0.0,0.0,0.0,0.0,0.0,0.0,0.0,3.9480385780334473,5.499481201171875,-5.319916248321533,0.0,0.0,0.0,0.0,0.0,0.0,0.0,0.0,0.0
1639064112.7235768,165305,1639064112,722243929,base_imu,0.0,0.0,0.0,0.0,0.0,0.0,0.0,0.0,0.0,0.0,0.0,0.0,0.0,-1.2784504890441895,-1.2777847051620483,-0.872185230255127,0.0,0.0,0.0,0.0,0.0,0.0,0.0,0.0,0.0,5.135562419891357,6.5696892738342285,-5.288791656494141,0.0,0.0,0.0,0.0,0.0,0.0,0.0,0.0,0.0
1639064112.7386086,165306,1639064112,735716654,base_imu,0.0,0.0,0.0,0.0,0.0,0.0,0.0,0.0,0.0,0.0,0.0,0.0,0.0,-1.709749460220337,-0.7101318836212158,-0.5937517881393433,0.0,0.0,0.0,0.0,0.0,0.0,0.0,0.0,0.0,5.774814605712891,6.471527099609375,-4.829104900360107,0.0,0.0,0.0,0.0,0.0,0.0,0.0,0.0,0.0
1639064112.7461045,165307,1639064112,744945465,base_imu,0.0,0.0,0.0,0.0,0.0,0.0,0.0,0.0,0.0,0.0,0.0,0.0,0.0,-1.7435715198516846,-0.4253068268299103,-0.26977822184562683,0.0,0.0,0.0,0.0,0.0,0.0,0.0,0.0,0.0,5.372588634490967,5.568912982940674,-3.818751573562622,0.0,0.0,0.0,0.0,0.0,0.0,0.0,0.0,0.0
1639064112.7659311,165308,1639064112,764728061,base_imu,0.0,0.0,0.0,0.0,0.0,0.0,0.0,0.0,0.0,0.0,0.0,0.0,0.0,-1.187769889831543,-0.2924150824546814,0.8186557292938232,0.0,0.0,0.0,0.0,0.0,0.0,0.0,0.0,0.0,4.977545261383057,1.3455413579940796,-3.157952070236206,0.0,0.0,0.0,0.0,0.0,0.0,0.0,0.0,0.0
1639064112.776069,165309,1639064112,774847855,base_imu,0.0,0.0,0.0,0.0,0.0,0.0,0.0,0.0,0.0,0.0,0.0,0.0,0.0,-0.6848318576812744,-0.2696450650691986,1.3507553339004517,0.0,0.0,0.0,0.0,0.0,0.0,0.0,0.0,0.0,5.336675643920898,-1.3646949529647827,-3.756502389907837,0.0,0.0,0.0,0.0,0.0,0.0,0.0,0.0,0.0
1639064112.7861025,165310,1639064112,784875650,base_imu,0.0,0.0,0.0,0.0,0.0,0.0,0.0,0.0,0.0,0.0,0.0,0.0,0.0,-0.14234596490859985,-0.20439761877059937,1.785516381263733,0.0,0.0,0.0,0.0,0.0,0.0,0.0,0.0,0.0,5.623979568481445,-2.540247917175293,-4.378994941711426,0.0,0.0,0.0,0.0,0.0,0.0,0.0,0.0,0.0
1639064112.7960474,165311,1639064112,794851446,base_imu,0.0,0.0,0.0,0.0,0.0,0.0,0.0,0.0,0.0,0.0,0.0,0.0,0.0,0.3623230755329132,-0.07496798783540726,2.137453079223633,0.0,0.0,0.0,0.0,0.0,0.0,0.0,0.0,0.0,5.702988147735596,-2.4372973442077637,-4.2544965744018555,0.0,0.0,0.0,0.0,0.0,0.0,0.0,0.0,0.0
1639064112.8094532,165312,1639064112,808193174,base_imu,0.0,0.0,0.0,0.0,0.0,0.0,0.0,0.0,0.0,0.0,0.0,0.0,0.0,1.0833739042282104,0.11092066019773483,2.5571672916412354,0.0,0.0,0.0,0.0,0.0,0.0,0.0,0.0,0.0,5.846640586853027,-0.20350714027881622,-4.1180267333984375,0.0,0.0,0.0,0.0,0.0,0.0,0.0,0.0,0.0
1639064112.821122,165313,1639064112,819914935,base_imu,0.0,0.0,0.0,0.0,0.0,0.0,0.0,0.0,0.0,0.0,0.0,0.0,0.0,1.8614164590835571,0.2768355906009674,3.0852720737457275,0.0,0.0,0.0,0.0,0.0,0.0,0.0,0.0,0.0,6.354211330413818,2.9065608978271484,-4.137180328369141,0.0,0.0,0.0,0.0,0.0,0.0,0.0,0.0,0.0
1639064112.826743,165314,1639064112,825577819,base_imu,0.0,0.0,0.0,0.0,0.0,0.0,0.0,0.0,0.0,0.0,0.0,0.0,0.0,2.2001705169677734,0.3832288682460785,3.355316638946533,0.0,0.0,0.0,0.0,0.0,0.0,0.0,0.0,0.0,6.584054470062256,4.809951305389404,-3.9911341667175293,0.0,0.0,0.0,0.0,0.0,0.0,0.0,0.0,0.0
1639064112.8361297,165315,1639064112,834904629,base_imu,0.0,0.0,0.0,0.0,0.0,0.0,0.0,0.0,0.0,0.0,0.0,0.0,0.0,2.2775354385375977,0.7032076716423035,3.705522298812866,0.0,0.0,0.0,0.0,0.0,0.0,0.0,0.0,0.0,6.67024564743042,9.14345645904541,-1.8483237028121948,0.0,0.0,0.0,0.0,0.0,0.0,0.0,0.0,0.0
1639064112.8460455,165316,1639064112,844850426,base_imu,0.0,0.0,0.0,0.0,0.0,0.0,0.0,0.0,0.0,0.0,0.0,0.0,0.0,1.6153403520584106,1.0856375694274902,4.061853408813477,0.0,0.0,0.0,0.0,0.0,0.0,0.0,0.0,0.0,4.537012100219727,15.605406761169434,0.15083470940589905,0.0,0.0,0.0,0.0,0.0,0.0,0.0,0.0,0.0
1639064112.8560662,165317,1639064112,854875221,base_imu,0.0,0.0,0.0,0.0,0.0,0.0,0.0,0.0,0.0,0.0,0.0,0.0,0.0,0.8623315691947937,1.619734525680542,4.031360149383545,0.0,0.0,0.0,0.0,0.0,0.0,0.0,0.0,0.0,-6.708552837371826,19.612701416015625,0.24181437492370605,0.0,0.0,0.0,0.0,0.0,0.0,0.0,0.0,0.0
1639064112.866015,165318,1639064112,864832018,base_imu,0.0,0.0,0.0,0.0,0.0,0.0,0.0,0.0,0.0,0.0,0.0,0.0,0.0,0.517718493938446,2.562626838684082,3.565173864364624,0.0,0.0,0.0,0.0,0.0,0.0,0.0,0.0,0.0,-19.613300323486328,19.612701416015625,-4.120420932769775,0.0,0.0,0.0,0.0,0.0,0.0,0.0,0.0,0.0
1639064112.8843117,165319,1639064112,883003647,base_imu,0.0,0.0,0.0,0.0,0.0,0.0,0.0,0.0,0.0,0.0,0.0,0.0,0.0,-2.1722073554992676,3.8521294593811035,3.530552625656128,0.0,0.0,0.0,0.0,0.0,0.0,0.0,0.0,0.0,-6.339846134185791,19.612701416015625,1.544260025024414,0.0,0.0,0.0,0.0,0.0,0.0,0.0,0.0,0.0
1639064112.8895595,165320,1639064112,888403536,base_imu,0.0,0.0,0.0,0.0,0.0,0.0,0.0,0.0,0.0,0.0,0.0,0.0,0.0,-2.5947177410125732,4.2706451416015625,3.269829273223877,0.0,0.0,0.0,0.0,0.0,0.0,0.0,0.0,0.0,-7.8098859786987305,19.612701416015625,3.375824451446533,0.0,0.0,0.0,0.0,0.0,0.0,0.0,0.0,0.0
1639064112.8961945,165321,1639064112,895047401,base_imu,0.0,0.0,0.0,0.0,0.0,0.0,0.0,0.0,0.0,0.0,0.0,0.0,0.0,-2.937333583831787,4.363190174102783,2.846386671066284,0.0,0.0,0.0,0.0,0.0,0.0,0.0,0.0,0.0,-11.544840812683105,19.612701416015625,5.69819974899292,0.0,0.0,0.0,0.0,0.0,0.0,0.0,0.0,0.0
1639064112.908512,165322,1639064112,906720162,base_imu,0.0,0.0,0.0,0.0,0.0,0.0,0.0,0.0,0.0,0.0,0.0,0.0,0.0,-2.5093636512756348,4.081027984619141,2.8260133266448975,0.0,0.0,0.0,0.0,0.0,0.0,0.0,0.0,0.0,-17.99721336364746,19.612701416015625,7.3885064125061035,0.0,0.0,0.0,0.0,0.0,0.0,0.0,0.0,0.0
1639064112.916043,165323,1639064112,914873996,base_imu,0.0,0.0,0.0,0.0,0.0,0.0,0.0,0.0,0.0,0.0,0.0,0.0,0.0,-2.2655510902404785,3.671566963195801,2.7527763843536377,0.0,0.0,0.0,0.0,0.0,0.0,0.0,0.0,0.0,-17.470489501953125,19.612701416015625,6.5696892738342285,0.0,0.0,0.0,0.0,0.0,0.0,0.0,0.0,0.0
1639064112.9348016,165324,1639064112,933582614,base_imu,0.0,0.0,0.0,0.0,0.0,0.0,0.0,0.0,0.0,0.0,0.0,0.0,0.0,-2.972487211227417,2.953711986541748,2.4999094009399414,0.0,0.0,0.0,0.0,0.0,0.0,0.0,0.0,0.0,-12.593501091003418,18.078617095947266,3.6056675910949707,0.0,0.0,0.0,0.0,0.0,0.0,0.0,0.0,0.0
1639064112.9402764,165325,1639064112,939097501,base_imu,0.0,0.0,0.0,0.0,0.0,0.0,0.0,0.0,0.0,0.0,0.0,0.0,0.0,-3.312572956085205,2.8471856117248535,2.2351911067962646,0.0,0.0,0.0,0.0,0.0,0.0,0.0,0.0,0.0,-11.341333389282227,14.626177787780762,2.513911724090576,0.0,0.0,0.0,0.0,0.0,0.0,0.0,0.0,0.0
1639064112.9460223,165326,1639064112,944858384,base_imu,0.0,0.0,0.0,0.0,0.0,0.0,0.0,0.0,0.0,0.0,0.0,0.0,0.0,-3.451723098754883,2.7590348720550537,1.864878535270691,0.0,0.0,0.0,0.0,0.0,0.0,0.0,0.0,0.0,-10.101137161254883,11.513715744018555,1.623268723487854,0.0,0.0,0.0,0.0,0.0,0.0,0.0,0.0,0.0
1639064112.957221,165327,1639064112,954861179,base_imu,0.0,0.0,0.0,0.0,0.0,0.0,0.0,0.0,0.0,0.0,0.0,0.0,0.0,-3.2421324253082275,2.7321369647979736,1.3847105503082275,0.0,0.0,0.0,0.0,0.0,0.0,0.0,0.0,0.0,-9.782708168029785,8.078036308288574,1.5418658256530762,0.0,0.0,0.0,0.0,0.0,0.0,0.0,0.0,0.0
1639064112.966066,165328,1639064112,964873975,base_imu,0.0,0.0,0.0,0.0,0.0,0.0,0.0,0.0,0.0,0.0,0.0,0.0,0.0,-2.860501289367676,2.5122931003570557,1.2737900018692017,0.0,0.0,0.0,0.0,0.0,0.0,0.0,0.0,0.0,-10.053253173828125,5.173869609832764,2.865859270095825,0.0,0.0,0.0,0.0,0.0,0.0,0.0,0.0,0.0
1639064112.9760509,165329,1639064112,974840772,base_imu,0.0,0.0,0.0,0.0,0.0,0.0,0.0,0.0,0.0,0.0,0.0,0.0,0.0,-2.441852331161499,2.0658140182495117,1.4262559413909912,0.0,0.0,0.0,0.0,0.0,0.0,0.0,0.0,0.0,-9.490615844726562,2.499546527862549,3.0406360626220703,0.0,0.0,0.0,0.0,0.0,0.0,0.0,0.0,0.0
1639064112.9911244,165330,1639064112,989891464,base_imu,0.0,0.0,0.0,0.0,0.0,0.0,0.0,0.0,0.0,0.0,0.0,0.0,0.0,-1.368598461151123,1.5421034097671509,1.381381630897522,0.0,0.0,0.0,0.0,0.0,0.0,0.0,0.0,0.0,-9.26795482635498,0.6991068720817566,2.4396915435791016,0.0,0.0,0.0,0.0,0.0,0.0,0.0,0.0,0.0
1639064113.0061452,165331,1639064113,4732161,base_imu,0.0,0.0,0.0,0.0,0.0,0.0,0.0,0.0,0.0,0.0,0.0,0.0,0.0,-0.8831042051315308,0.94142746925354,1.2452940940856934,0.0,0.0,0.0,0.0,0.0,0.0,0.0,0.0,0.0,-6.476315498352051,-0.15801730751991272,0.2346317619085312,0.0,0.0,0.0,0.0,0.0,0.0,0.0,0.0,0.0
1639064113.016069,165332,1639064113,14881954,base_imu,0.0,0.0,0.0,0.0,0.0,0.0,0.0,0.0,0.0,0.0,0.0,0.0,0.0,-0.7002782225608826,0.9464874267578125,0.9350358843803406,0.0,0.0,0.0,0.0,0.0,0.0,0.0,0.0,0.0,-5.284003257751465,0.3711012601852417,-0.5674257874488831,0.0,0.0,0.0,0.0,0.0,0.0,0.0,0.0,0.0
1639064113.0271688,165333,1639064113,24984748,base_imu,0.0,0.0,0.0,0.0,0.0,0.0,0.0,0.0,0.0,0.0,0.0,0.0,0.0,-0.6912234425544739,1.127182960510254,0.6813697814941406,0.0,0.0,0.0,0.0,0.0,0.0,0.0,0.0,0.0,-3.9695863723754883,0.48123452067375183,-0.9217676520347595,0.0,0.0,0.0,0.0,0.0,0.0,0.0,0.0,0.0
1639064113.0405514,165334,1639064113,39227458,base_imu,0.0,0.0,0.0,0.0,0.0,0.0,0.0,0.0,0.0,0.0,0.0,0.0,0.0,-0.6640592217445374,1.4574148654937744,0.2605903148651123,0.0,0.0,0.0,0.0,0.0,0.0,0.0,0.0,0.0,-4.616020679473877,-0.1867477297782898,-1.4173673391342163,0.0,0.0,0.0,0.0,0.0,0.0,0.0,0.0,0.0
1639064113.0508282,165335,1639064113,49494249,base_imu,0.0,0.0,0.0,0.0,0.0,0.0,0.0,0.0,0.0,0.0,0.0,0.0,0.0,-0.5693838596343994,1.5265239477157593,-0.10572749376296997,0.0,0.0,0.0,0.0,0.0,0.0,0.0,0.0,0.0,-5.880159378051758,-0.5506663918495178,-1.647210717201233,0.0,0.0,0.0,0.0,0.0,0.0,0.0,0.0,0.0
1639064113.063859,165336,1639064113,60422026,base_imu,0.0,0.0,0.0,0.0,0.0,0.0,0.0,0.0,0.0,0.0,0.0,0.0,0.0,-0.46418896317481995,1.5034875869750977,-0.3163835406303406,0.0,0.0,0.0,0.0,0.0,0.0,0.0,0.0,0.0,-6.540958881378174,-0.7709329128265381,-1.7980453968048096,0.0,0.0,0.0,0.0,0.0,0.0,0.0,0.0,0.0
1639064113.0763388,165337,1639064113,71650797,base_imu,0.0,0.0,0.0,0.0,0.0,0.0,0.0,0.0,0.0,0.0,0.0,0.0,0.0,-0.21571604907512665,1.2804478406906128,-0.559929609298706,0.0,0.0,0.0,0.0,0.0,0.0,0.0,0.0,0.0,-7.11077880859375,-1.8507179021835327,-1.965639591217041,0.0,0.0,0.0,0.0,0.0,0.0,0.0,0.0,0.0
1639064113.0854015,165338,1639064113,82017586,base_imu,0.0,0.0,0.0,0.0,0.0,0.0,0.0,0.0,0.0,0.0,0.0,0.0,0.0,0.03302319720387459,1.0117348432540894,-0.6671218276023865,0.0,0.0,0.0,0.0,0.0,0.0,0.0,0.0,0.0,-7.2352776527404785,-3.3183634281158447,-2.4468741416931152,0.0,0.0,0.0,0.0,0.0,0.0,0.0,0.0,0.0
1639064113.0984323,165339,1639064113,91944384,base_imu,0.0,0.0,0.0,0.0,0.0,0.0,0.0,0.0,0.0,0.0,0.0,0.0,0.0,0.16618125140666962,0.721849799156189,-0.6185191869735718,0.0,0.0,0.0,0.0,0.0,0.0,0.0,0.0,0.0,-6.8162922859191895,-4.546588897705078,-2.006340980529785,0.0,0.0,0.0,0.0,0.0,0.0,0.0,0.0,0.0
1639064113.105402,165340,1639064113,100901201,base_imu,0.0,0.0,0.0,0.0,0.0,0.0,0.0,0.0,0.0,0.0,0.0,0.0,0.0,0.25486451387405396,0.42317628860473633,-0.4705805778503418,0.0,0.0,0.0,0.0,0.0,0.0,0.0,0.0,0.0,-6.042964935302734,-5.96874475479126,-1.4269441366195679,0.0,0.0,0.0,0.0,0.0,0.0,0.0,0.0,0.0
1639064113.1202817,165341,1639064113,109174033,base_imu,0.0,0.0,0.0,0.0,0.0,0.0,0.0,0.0,0.0,0.0,0.0,0.0,0.0,0.37683728337287903,0.14487595856189728,-0.21744710206985474,0.0,0.0,0.0,0.0,0.0,0.0,0.0,0.0,0.0,-4.367023944854736,-7.833827972412109,-0.7685387134552002,0.0,0.0,0.0,0.0,0.0,0.0,0.0,0.0,0.0
1639064113.1240747,165342,1639064113,122571760,base_imu,0.0,0.0,0.0,0.0,0.0,0.0,0.0,0.0,0.0,0.0,0.0,0.0,0.0,0.9262474179267883,0.001065264455974102,0.0007989483419805765,0.0,0.0,0.0,0.0,0.0,0.0,0.0,0.0,0.0,-1.5849615335464478,-9.63187313079834,-0.24660277366638184,0.0,0.0,0.0,0.0,0.0,0.0,0.0,0.0,0.0
1639064113.1352105,165343,1639064113,132649554,base_imu,0.0,0.0,0.0,0.0,0.0,0.0,0.0,0.0,0.0,0.0,0.0,0.0,0.0,1.322658896446228,0.003728425595909357,0.003861583536490798,0.0,0.0,0.0,0.0,0.0,0.0,0.0,0.0,0.0,-0.7326257228851318,-10.053253173828125,-0.31124621629714966,0.0,0.0,0.0,0.0,0.0,0.0,0.0,0.0,0.0
1639064113.1511543,165344,1639064113,144045322,base_imu,0.0,0.0,0.0,0.0,0.0,0.0,0.0,0.0,0.0,0.0,0.0,0.0,0.0,2.028263568878174,0.012383699417114258,-0.1751028448343277,0.0,0.0,0.0,0.0,0.0,0.0,0.0,0.0,0.0,-0.33039984107017517,-10.02691650390625,-0.629675030708313,0.0,0.0,0.0,0.0,0.0,0.0,0.0,0.0,0.0
1639064113.1561022,165345,1639064113,149144218,base_imu,0.0,0.0,0.0,0.0,0.0,0.0,0.0,0.0,0.0,0.0,0.0,0.0,0.0,2.347975969314575,-0.04181163012981415,-0.3840278387069702,0.0,0.0,0.0,0.0,0.0,0.0,0.0,0.0,0.0,-0.9624690413475037,-9.557653427124023,-0.8667010068893433,0.0,0.0,0.0,0.0,0.0,0.0,0.0,0.0,0.0
1639064113.1689029,165346,1639064113,161436968,base_imu,0.0,0.0,0.0,0.0,0.0,0.0,0.0,0.0,0.0,0.0,0.0,0.0,0.0,2.577540397644043,-0.303200900554657,-0.8322378396987915,0.0,0.0,0.0,0.0,0.0,0.0,0.0,0.0,0.0,-2.734178304672241,-8.123526573181152,-1.036689281463623,0.0,0.0,0.0,0.0,0.0,0.0,0.0,0.0,0.0
1639064113.1749527,165347,1639064113,173195728,base_imu,0.0,0.0,0.0,0.0,0.0,0.0,0.0,0.0,0.0,0.0,0.0,0.0,0.0,2.4458470344543457,-0.8769789338111877,-1.1289139986038208,0.0,0.0,0.0,0.0,0.0,0.0,0.0,0.0,0.0,-4.496310710906982,-5.858611583709717,-0.5410895943641663,0.0,0.0,0.0,0.0,0.0,0.0,0.0,0.0,0.0
1639064113.1858006,165348,1639064113,179783594,base_imu,0.0,0.0,0.0,0.0,0.0,0.0,0.0,0.0,0.0,0.0,0.0,0.0,0.0,2.014681339263916,-1.773931622505188,-1.2503541707992554,0.0,0.0,0.0,0.0,0.0,0.0,0.0,0.0,0.0,-6.698976039886475,-2.7317841053009033,-0.49320554733276367,0.0,0.0,0.0,0.0,0.0,0.0,0.0,0.0,0.0
1639064113.1903884,165349,1639064113,188861409,base_imu,0.0,0.0,0.0,0.0,0.0,0.0,0.0,0.0,0.0,0.0,0.0,0.0,0.0,1.4334464073181152,-2.499643087387085,-1.1471565961837769,0.0,0.0,0.0,0.0,0.0,0.0,0.0,0.0,0.0,-7.680598735809326,0.2777273952960968,0.45489832758903503,0.0,0.0,0.0,0.0,0.0,0.0,0.0,0.0,0.0
1639064113.203923,165350,1639064113,201247157,base_imu,0.0,0.0,0.0,0.0,0.0,0.0,0.0,0.0,0.0,0.0,0.0,0.0,0.0,0.6122607588768005,-3.3787524700164795,-0.7094660997390747,0.0,0.0,0.0,0.0,0.0,0.0,0.0,0.0,0.0,-9.32541561126709,5.080495834350586,0.6320692300796509,0.0,0.0,0.0,0.0,0.0,0.0,0.0,0.0,0.0
1639064113.216318,165351,1639064113,211307952,base_imu,0.0,0.0,0.0,0.0,0.0,0.0,0.0,0.0,0.0,0.0,0.0,0.0,0.0,0.9283779263496399,-3.266366958618164,-0.5340969562530518,0.0,0.0,0.0,0.0,0.0,0.0,0.0,0.0,0.0,-13.55118179321289,11.300631523132324,-3.732560396194458,0.0,0.0,0.0,0.0,0.0,0.0,0.0,0.0,0.0
1639064113.2287877,165352,1639064113,223653700,base_imu,0.0,0.0,0.0,0.0,0.0,0.0,0.0,0.0,0.0,0.0,0.0,0.0,0.0,2.1646173000335693,-2.059821844100952,-1.0697917938232422,0.0,0.0,0.0,0.0,0.0,0.0,0.0,0.0,0.0,-19.613300323486328,19.612701416015625,-14.494497299194336,0.0,0.0,0.0,0.0,0.0,0.0,0.0,0.0,0.0
1639064113.2412152,165353,1639064113,231461541,base_imu,0.0,0.0,0.0,0.0,0.0,0.0,0.0,0.0,0.0,0.0,0.0,0.0,0.0,1.4648717641830444,-2.499643087387085,-1.5698002576828003,0.0,0.0,0.0,0.0,0.0,0.0,0.0,0.0,0.0,-16.247053146362305,19.612701416015625,-6.045359134674072,0.0,0.0,0.0,0.0,0.0,0.0,0.0,0.0,0.0
1639064113.2471852,165354,1639064113,240131364,base_imu,0.0,0.0,0.0,0.0,0.0,0.0,0.0,0.0,0.0,0.0,0.0,0.0,0.0,-0.7665908932685852,-2.0471718311309814,-2.954777240753174,0.0,0.0,0.0,0.0,0.0,0.0,0.0,0.0,0.0,-5.722141742706299,19.612701416015625,-3.0837316513061523,0.0,0.0,0.0,0.0,0.0,0.0,0.0,0.0,0.0
1639064113.2545002,165355,1639064113,250469154,base_imu,0.0,0.0,0.0,0.0,0.0,0.0,0.0,0.0,0.0,0.0,0.0,0.0,0.0,-1.6571519374847412,-0.46299055218696594,-4.281164646148682,0.0,0.0,0.0,0.0,0.0,0.0,0.0,0.0,0.0,-10.63504409790039,19.612701416015625,4.728548049926758,0.0,0.0,0.0,0.0,0.0,0.0,0.0,0.0,0.0
1639064113.2669737,165356,1639064113,257142018,base_imu,0.0,0.0,0.0,0.0,0.0,0.0,0.0,0.0,0.0,0.0,0.0,0.0,0.0,-1.6824519634246826,-0.5209143161773682,-4.363323211669922,0.0,0.0,0.0,0.0,0.0,0.0,0.0,0.0,0.0,-17.25022315979004,18.36113166809082,4.807557106018066,0.0,0.0,0.0,0.0,0.0,0.0,0.0,0.0,0.0
1639064113.2704659,165357,1639064113,265443849,base_imu,0.0,0.0,0.0,0.0,0.0,0.0,0.0,0.0,0.0,0.0,0.0,0.0,0.0,-0.609997034072876,-0.8069378137588501,-4.363323211669922,0.0,0.0,0.0,0.0,0.0,0.0,0.0,0.0,0.0,-19.613300323486328,15.267824172973633,1.3479355573654175,0.0,0.0,0.0,0.0,0.0,0.0,0.0,0.0,0.0
1639064113.2909174,165358,1639064113,285469440,base_imu,0.0,0.0,0.0,0.0,0.0,0.0,0.0,0.0,0.0,0.0,0.0,0.0,0.0,0.9420932531356812,-1.5144065618515015,-2.8458540439605713,0.0,0.0,0.0,0.0,0.0,0.0,0.0,0.0,0.0,-19.613300323486328,12.873621940612793,1.0989385843276978,0.0,0.0,0.0,0.0,0.0,0.0,0.0,0.0,0.0
1639064113.2967973,165359,1639064113,292102305,base_imu,0.0,0.0,0.0,0.0,0.0,0.0,0.0,0.0,0.0,0.0,0.0,0.0,0.0,1.307478904724121,-1.7044230699539185,-2.588592529296875,0.0,0.0,0.0,0.0,0.0,0.0,0.0,0.0,0.0,-17.94214630126953,12.102689743041992,1.1899182796478271,0.0,0.0,0.0,0.0,0.0,0.0,0.0,0.0,0.0
1639064113.309495,165360,1639064113,301127121,base_imu,0.0,0.0,0.0,0.0,0.0,0.0,0.0,0.0,0.0,0.0,0.0,0.0,0.0,1.5900403261184692,-1.7889784574508667,-2.530402421951294,0.0,0.0,0.0,0.0,0.0,0.0,0.0,0.0,0.0,-16.76420021057129,11.836933135986328,0.9457096457481384,0.0,0.0,0.0,0.0,0.0,0.0,0.0,0.0,0.0
1639064113.3189528,165361,1639064113,307698988,base_imu,0.0,0.0,0.0,0.0,0.0,0.0,0.0,0.0,0.0,0.0,0.0,0.0,0.0,2.0092217922210693,-1.9832561016082764,-2.669019937515259,0.0,0.0,0.0,0.0,0.0,0.0,0.0,0.0,0.0,-16.045940399169922,11.72201156616211,0.26575639843940735,0.0,0.0,0.0,0.0,0.0,0.0,0.0,0.0,0.0
1639064113.3282895,165362,1639064113,320942718,base_imu,0.0,0.0,0.0,0.0,0.0,0.0,0.0,0.0,0.0,0.0,0.0,0.0,0.0,2.4647555351257324,-2.3088274002075195,-2.6754117012023926,0.0,0.0,0.0,0.0,0.0,0.0,0.0,0.0,0.0,-13.359644889831543,11.192893028259277,-0.06464344263076782,0.0,0.0,0.0,0.0,0.0,0.0,0.0,0.0,0.0
1639064113.3392932,165363,1639064113,329547542,base_imu,0.0,0.0,0.0,0.0,0.0,0.0,0.0,0.0,0.0,0.0,0.0,0.0,0.0,2.5363945960998535,-2.4541029930114746,-2.5435850620269775,0.0,0.0,0.0,0.0,0.0,0.0,0.0,0.0,0.0,-11.18092155456543,10.098742485046387,0.1628057062625885,0.0,0.0,0.0,0.0,0.0,0.0,0.0,0.0,0.0
1639064113.3411474,165364,1639064113,338635357,base_imu,0.0,0.0,0.0,0.0,0.0,0.0,0.0,0.0,0.0,0.0,0.0,0.0,0.0,2.4382572174072266,-2.462625026702881,-2.4008398056030273,0.0,0.0,0.0,0.0,0.0,0.0,0.0,0.0,0.0,-9.490615844726562,9.605537414550781,-0.2346317619085312,0.0,0.0,0.0,0.0,0.0,0.0,0.0,0.0,0.0
1639064113.362645,165365,1639064113,346284201,base_imu,0.0,0.0,0.0,0.0,0.0,0.0,0.0,0.0,0.0,0.0,0.0,0.0,0.0,2.111886739730835,-2.328801155090332,-2.089249849319458,0.0,0.0,0.0,0.0,0.0,0.0,0.0,0.0,0.0,-6.943184852600098,9.17697525024414,-0.45250412821769714,0.0,0.0,0.0,0.0,0.0,0.0,0.0,0.0,0.0
1639064113.3657088,165366,1639064113,360271916,base_imu,0.0,0.0,0.0,0.0,0.0,0.0,0.0,0.0,0.0,0.0,0.0,0.0,0.0,1.7057546377182007,-2.0711402893066406,-1.7257283926010132,0.0,0.0,0.0,0.0,0.0,0.0,0.0,0.0,0.0,-5.183446407318115,8.59997272491455,-0.7924807667732239,0.0,0.0,0.0,0.0,0.0,0.0,0.0,0.0,0.0
1639064113.3772006,165367,1639064113,367673765,base_imu,0.0,0.0,0.0,0.0,0.0,0.0,0.0,0.0,0.0,0.0,0.0,0.0,0.0,1.6215988397598267,-2.012817144393921,-1.6040219068527222,0.0,0.0,0.0,0.0,0.0,0.0,0.0,0.0,0.0,-4.699817657470703,8.267178535461426,-1.0199298858642578,0.0,0.0,0.0,0.0,0.0,0.0,0.0,0.0,0.0
1639064113.3937783,165368,1639064113,380148511,base_imu,0.0,0.0,0.0,0.0,0.0,0.0,0.0,0.0,0.0,0.0,0.0,0.0,0.0,1.3367737531661987,-1.9020296335220337,-1.3157347440719604,0.0,0.0,0.0,0.0,0.0,0.0,0.0,0.0,0.0,-3.485957622528076,7.682992935180664,-2.1571757793426514,0.0,0.0,0.0,0.0,0.0,0.0,0.0,0.0,0.0
1639064113.397973,165369,1639064113,392691256,base_imu,0.0,0.0,0.0,0.0,0.0,0.0,0.0,0.0,0.0,0.0,0.0,0.0,0.0,0.7857657074928284,-1.6745957136154175,-0.9845706820487976,0.0,0.0,0.0,0.0,0.0,0.0,0.0,0.0,0.0,-1.4173673391342163,7.1227498054504395,-3.6320040225982666,0.0,0.0,0.0,0.0,0.0,0.0,0.0,0.0,0.0
1639064113.4146428,165370,1639064113,401666073,base_imu,0.0,0.0,0.0,0.0,0.0,0.0,0.0,0.0,0.0,0.0,0.0,0.0,0.0,0.33382725715637207,-1.5266571044921875,-0.8179899454116821,0.0,0.0,0.0,0.0,0.0,0.0,0.0,0.0,0.0,0.043095629662275314,6.2177414894104,-4.237736701965332,0.0,0.0,0.0,0.0,0.0,0.0,0.0,0.0,0.0
1639064113.4152768,165371,1639064113,412495852,base_imu,0.0,0.0,0.0,0.0,0.0,0.0,0.0,0.0,0.0,0.0,0.0,0.0,0.0,-0.22463764250278473,-1.3442305326461792,-0.6960171461105347,0.0,0.0,0.0,0.0,0.0,0.0,0.0,0.0,0.0,1.6041151285171509,5.03021764755249,-4.321534156799316,0.0,0.0,0.0,0.0,0.0,0.0,0.0,0.0,0.0
1639064113.4240286,165372,1639064113,418991720,base_imu,0.0,0.0,0.0,0.0,0.0,0.0,0.0,0.0,0.0,0.0,0.0,0.0,0.0,-0.5515406727790833,-1.2547483444213867,-0.6567355394363403,0.0,0.0,0.0,0.0,0.0,0.0,0.0,0.0,0.0,3.1244332790374756,4.663904666900635,-4.580107688903809,0.0,0.0,0.0,0.0,0.0,0.0,0.0,0.0,0.0
1639064113.4309695,165373,1639064113,429109514,base_imu,0.0,0.0,0.0,0.0,0.0,0.0,0.0,0.0,0.0,0.0,0.0,0.0,0.0,-0.9109342694282532,-1.112668752670288,-0.5834985971450806,0.0,0.0,0.0,0.0,0.0,0.0,0.0,0.0,0.0,5.463568210601807,4.836287498474121,-4.8602294921875,0.0,0.0,0.0,0.0,0.0,0.0,0.0,0.0,0.0
1639064113.448265,165374,1639064113,442628238,base_imu,0.0,0.0,0.0,0.0,0.0,0.0,0.0,0.0,0.0,0.0,0.0,0.0,0.0,-1.2844425439834595,-0.8827047348022461,-0.4243747293949127,0.0,0.0,0.0,0.0,0.0,0.0,0.0,0.0,0.0,8.592789649963379,5.403713226318359,-5.195417404174805,0.0,0.0,0.0,0.0,0.0,0.0,0.0,0.0,0.0
1639064113.456634,165375,1639064113,449484098,base_imu,0.0,0.0,0.0,0.0,0.0,0.0,0.0,0.0,0.0,0.0,0.0,0.0,0.0,-1.3840447664260864,-0.7527424693107605,-0.2929477095603943,0.0,0.0,0.0,0.0,0.0,0.0,0.0,0.0,0.0,10.086771965026855,5.489904403686523,-4.819528102874756,0.0,0.0,0.0,0.0,0.0,0.0,0.0,0.0,0.0
1639064113.4686646,165376,1639064113,461272858,base_imu,0.0,0.0,0.0,0.0,0.0,0.0,0.0,0.0,0.0,0.0,0.0,0.0,0.0,-1.473260760307312,-0.3996073305606842,0.08335693925619125,0.0,0.0,0.0,0.0,0.0,0.0,0.0,0.0,0.0,10.929530143737793,6.01423454284668,-4.632780075073242,0.0,0.0,0.0,0.0,0.0,0.0,0.0,0.0,0.0
1639064113.4811954,165377,1639064113,470354673,base_imu,0.0,0.0,0.0,0.0,0.0,0.0,0.0,0.0,0.0,0.0,0.0,0.0,0.0,-1.4134727716445923,-0.16271914541721344,0.3151851296424866,0.0,0.0,0.0,0.0,0.0,0.0,0.0,0.0,0.0,9.63187313079834,5.47075080871582,-4.383783340454102,0.0,0.0,0.0,0.0,0.0,0.0,0.0,0.0,0.0
1639064113.4947011,165378,1639064113,482073434,base_imu,0.0,0.0,0.0,0.0,0.0,0.0,0.0,0.0,0.0,0.0,0.0,0.0,0.0,-1.2797820568084717,0.09081379324197769,0.593618631362915,0.0,0.0,0.0,0.0,0.0,0.0,0.0,0.0,0.0,6.931213855743408,4.424484729766846,-4.048594951629639,0.0,0.0,0.0,0.0,0.0,0.0,0.0,0.0,0.0
1639064113.498917,165379,1639064113,490819256,base_imu,0.0,0.0,0.0,0.0,0.0,0.0,0.0,0.0,0.0,0.0,0.0,0.0,0.0,-0.913197934627533,0.3254382908344269,0.9611348509788513,0.0,0.0,0.0,0.0,0.0,0.0,0.0,0.0,0.0,3.8977603912353516,3.514688014984131,-4.177881717681885,0.0,0.0,0.0,0.0,0.0,0.0,0.0,0.0,0.0
1639064113.506146,165380,1639064113,500770053,base_imu,0.0,0.0,0.0,0.0,0.0,0.0,0.0,0.0,0.0,0.0,0.0,0.0,0.0,-0.43729105591773987,0.5277053713798523,1.3421000242233276,0.0,0.0,0.0,0.0,0.0,0.0,0.0,0.0,0.0,1.8962076902389526,3.5649662017822266,-3.859452962875366,0.0,0.0,0.0,0.0,0.0,0.0,0.0,0.0,0.0
1639064113.5300474,165381,1639064113,507372919,base_imu,0.0,0.0,0.0,0.0,0.0,0.0,0.0,0.0,0.0,0.0,0.0,0.0,0.0,-0.07350324839353561,0.6207828521728516,1.6257266998291016,0.0,0.0,0.0,0.0,0.0,0.0,0.0,0.0,0.0,0.9792284965515137,3.801992177963257,-3.6559460163116455,0.0,0.0,0.0,0.0,0.0,0.0,0.0,0.0,0.0
1639064113.5331924,165382,1639064113,522687607,base_imu,0.0,0.0,0.0,0.0,0.0,0.0,0.0,0.0,0.0,0.0,0.0,0.0,0.0,0.7805725336074829,0.8150604367256165,2.3909859657287598,0.0,0.0,0.0,0.0,0.0,0.0,0.0,0.0,0.0,0.028730420395731926,5.102043628692627,-2.937685489654541,0.0,0.0,0.0,0.0,0.0,0.0,0.0,0.0,0.0
1639064113.5376573,165383,1639064113,529201474,base_imu,0.0,0.0,0.0,0.0,0.0,0.0,0.0,0.0,0.0,0.0,0.0,0.0,0.0,1.0365022420883179,0.8415589332580566,2.6076340675354004,0.0,0.0,0.0,0.0,0.0,0.0,0.0,0.0,0.0,-0.05267243832349777,5.590460777282715,-2.578555107116699,0.0,0.0,0.0,0.0,0.0,0.0,0.0,0.0,0.0
1639064113.548749,165384,1639064113,540446245,base_imu,0.0,0.0,0.0,0.0,0.0,0.0,0.0,0.0,0.0,0.0,0.0,0.0,0.0,0.957805871963501,0.9464874267578125,2.780473232269287,0.0,0.0,0.0,0.0,0.0,0.0,0.0,0.0,0.0,-0.10295066982507706,8.195352554321289,0.8427590131759644,0.0,0.0,0.0,0.0,0.0,0.0,0.0,0.0,0.0
1639064113.561056,165385,1639064113,551060029,base_imu,0.0,0.0,0.0,0.0,0.0,0.0,0.0,0.0,0.0,0.0,0.0,0.0,0.0,0.1474059671163559,1.206545114517212,2.9549102783203125,0.0,0.0,0.0,0.0,0.0,0.0,0.0,0.0,0.0,-2.3032219409942627,13.39795207977295,4.632780075073242,0.0,0.0,0.0,0.0,0.0,0.0,0.0,0.0,0.0
1639064113.5696146,165386,1639064113,563186782,base_imu,0.0,0.0,0.0,0.0,0.0,0.0,0.0,0.0,0.0,0.0,0.0,0.0,0.0,-0.5065332651138306,1.6121445894241333,2.7100327014923096,0.0,0.0,0.0,0.0,0.0,0.0,0.0,0.0,0.0,-11.05642318725586,18.282123565673828,2.2673089504241943,0.0,0.0,0.0,0.0,0.0,0.0,0.0,0.0,0.0
1639064113.5909603,165387,1639064113,572208598,base_imu,0.0,0.0,0.0,0.0,0.0,0.0,0.0,0.0,0.0,0.0,0.0,0.0,0.0,-1.3185310363769531,2.808835983276367,2.0158798694610596,0.0,0.0,0.0,0.0,0.0,0.0,0.0,0.0,0.0,-19.613300323486328,19.612701416015625,-1.9704279899597168,0.0,0.0,0.0,0.0,0.0,0.0,0.0,0.0,0.0
1639064113.5911152,165388,1639064113,585258332,base_imu,0.0,0.0,0.0,0.0,0.0,0.0,0.0,0.0,0.0,0.0,0.0,0.0,0.0,-2.14064884185791,2.9394640922546387,2.41934871673584,0.0,0.0,0.0,0.0,0.0,0.0,0.0,0.0,0.0,-10.089165687561035,19.00996208190918,6.026205539703369,0.0,0.0,0.0,0.0,0.0,0.0,0.0,0.0,0.0
1639064113.6133518,165389,1639064113,596416105,base_imu,0.0,0.0,0.0,0.0,0.0,0.0,0.0,0.0,0.0,0.0,0.0,0.0,0.0,-1.8800585269927979,3.2743566036224365,2.353435516357422,0.0,0.0,0.0,0.0,0.0,0.0,0.0,0.0,0.0,-14.595053672790527,18.53351593017578,9.832985877990723,0.0,0.0,0.0,0.0,0.0,0.0,0.0,0.0,0.0
1639064113.6135657,165390,1639064113,605404921,base_imu,0.0,0.0,0.0,0.0,0.0,0.0,0.0,0.0,0.0,0.0,0.0,0.0,0.0,-1.486043930053711,2.9558424949645996,2.419748067855835,0.0,0.0,0.0,0.0,0.0,0.0,0.0,0.0,0.0,-18.622100830078125,19.612701416015625,9.849745750427246,0.0,0.0,0.0,0.0,0.0,0.0,0.0,0.0,0.0
1639064113.6174636,165391,1639064113,615391718,base_imu,0.0,0.0,0.0,0.0,0.0,0.0,0.0,0.0,0.0,0.0,0.0,0.0,0.0,-1.3456952571868896,2.4064323902130127,2.549177885055542,0.0,0.0,0.0,0.0,0.0,0.0,0.0,0.0,0.0,-17.908628463745117,19.612701416015625,8.836997985839844,0.0,0.0,0.0,0.0,0.0,0.0,0.0,0.0,0.0
1639064113.6410673,165392,1639064113,625410514,base_imu,0.0,0.0,0.0,0.0,0.0,0.0,0.0,0.0,0.0,0.0,0.0,0.0,0.0,-1.5704660415649414,1.94637131690979,2.5321335792541504,0.0,0.0,0.0,0.0,0.0,0.0,0.0,0.0,0.0,-15.172056198120117,19.612701416015625,6.71573543548584,0.0,0.0,0.0,0.0,0.0,0.0,0.0,0.0,0.0
1639064113.644339,165393,1639064113,639608224,base_imu,0.0,0.0,0.0,0.0,0.0,0.0,0.0,0.0,0.0,0.0,0.0,0.0,0.0,-2.862898111343384,1.6365125179290771,1.9478360414505005,0.0,0.0,0.0,0.0,0.0,0.0,0.0,0.0,0.0,-11.896787643432617,15.746664047241211,3.064578056335449,0.0,0.0,0.0,0.0,0.0,0.0,0.0,0.0,0.0
1639064113.647315,165394,1639064113,645644101,base_imu,0.0,0.0,0.0,0.0,0.0,0.0,0.0,0.0,0.0,0.0,0.0,0.0,0.0,-3.11722993850708,1.5849803686141968,1.549027681350708,0.0,0.0,0.0,0.0,0.0,0.0,0.0,0.0,0.0,-10.680533409118652,13.469779014587402,2.7964274883270264,0.0,0.0,0.0,0.0,0.0,0.0,0.0,0.0,0.0
1639064113.6576638,165395,1639064113,655391903,base_imu,0.0,0.0,0.0,0.0,0.0,0.0,0.0,0.0,0.0,0.0,0.0,0.0,0.0,-2.930142879486084,1.5520902872085571,1.140631914138794,0.0,0.0,0.0,0.0,0.0,0.0,0.0,0.0,0.0,-10.374075889587402,11.745953559875488,2.5450363159179688,0.0,0.0,0.0,0.0,0.0,0.0,0.0,0.0,0.0
1639064113.6665967,165396,1639064113,665402699,base_imu,0.0,0.0,0.0,0.0,0.0,0.0,0.0,0.0,0.0,0.0,0.0,0.0,0.0,-2.574610948562622,1.463407039642334,1.0993529558181763,0.0,0.0,0.0,0.0,0.0,0.0,0.0,0.0,0.0,-11.183316230773926,9.888052940368652,2.2026655673980713,0.0,0.0,0.0,0.0,0.0,0.0,0.0,0.0,0.0
1639064113.6856833,165397,1639064113,684461311,base_imu,0.0,0.0,0.0,0.0,0.0,0.0,0.0,0.0,0.0,0.0,0.0,0.0,0.0,-2.071539878845215,1.0096043348312378,1.2675315141677856,0.0,0.0,0.0,0.0,0.0,0.0,0.0,0.0,0.0,-10.338162422180176,5.197811603546143,1.4484920501708984,0.0,0.0,0.0,0.0,0.0,0.0,0.0,0.0,0.0
1639064113.6966531,165398,1639064113,690642185,base_imu,0.0,0.0,0.0,0.0,0.0,0.0,0.0,0.0,0.0,0.0,0.0,0.0,0.0,-1.8969696760177612,0.8422247171401978,1.2494220733642578,0.0,0.0,0.0,0.0,0.0,0.0,0.0,0.0,0.0,-9.081207275390625,3.8355109691619873,1.1755529642105103,0.0,0.0,0.0,0.0,0.0,0.0,0.0,0.0,0.0
1639064113.702122,165399,1639064113,700904975,base_imu,0.0,0.0,0.0,0.0,0.0,0.0,0.0,0.0,0.0,0.0,0.0,0.0,0.0,-1.5190670490264893,0.7318366765975952,1.524526596069336,0.0,0.0,0.0,0.0,0.0,0.0,0.0,0.0,0.0,-5.880159378051758,-2.4899697303771973,-2.628833532333374,0.0,0.0,0.0,0.0,0.0,0.0,0.0,0.0,0.0
1639064113.7165887,165400,1639064113,715441679,base_imu,0.0,0.0,0.0,0.0,0.0,0.0,0.0,0.0,0.0,0.0,0.0,0.0,0.0,-1.5136076211929321,0.5255748629570007,0.23875239491462708,0.0,0.0,0.0,0.0,0.0,0.0,0.0,0.0,0.0,-6.97430944442749,2.8179752826690674,-0.3064578175544739,0.0,0.0,0.0,0.0,0.0,0.0,0.0,0.0,0.0
1639064113.7267435,165401,1639064113,725571473,base_imu,0.0,0.0,0.0,0.0,0.0,0.0,0.0,0.0,0.0,0.0,0.0,0.0,0.0,-1.7998974323272705,0.4054662883281708,0.25845977663993835,0.0,0.0,0.0,0.0,0.0,0.0,0.0,0.0,0.0,-4.1156325340271,1.9823989868164062,-1.0989385843276978,0.0,0.0,0.0,0.0,0.0,0.0,0.0,0.0,0.0
1639064113.7368174,165402,1639064113,735597269,base_imu,0.0,0.0,0.0,0.0,0.0,0.0,0.0,0.0,0.0,0.0,0.0,0.0,0.0,-2.0650150775909424,0.5759086012840271,0.3207777440547943,0.0,0.0,0.0,0.0,0.0,0.0,0.0,0.0,0.0,-3.6367924213409424,0.16998831927776337,-2.4636335372924805,0.0,0.0,0.0,0.0,0.0,0.0,0.0,0.0,0.0
1639064113.7469501,165403,1639064113,745593065,base_imu,0.0,0.0,0.0,0.0,0.0,0.0,0.0,0.0,0.0,0.0,0.0,0.0,0.0,-2.103631019592285,0.781238317489624,0.2984071969985962,0.0,0.0,0.0,0.0,0.0,0.0,0.0,0.0,0.0,-4.412513732910156,-1.6831237077713013,-2.719813108444214,0.0,0.0,0.0,0.0,0.0,0.0,0.0,0.0,0.0
1639064113.7568398,165404,1639064113,755560862,base_imu,0.0,0.0,0.0,0.0,0.0,0.0,0.0,0.0,0.0,0.0,0.0,0.0,0.0,-1.9793944358825684,0.8158593773841858,0.2850914001464844,0.0,0.0,0.0,0.0,0.0,0.0,0.0,0.0,0.0,-5.2696380615234375,-3.6559460163116455,-2.2242133617401123,0.0,0.0,0.0,0.0,0.0,0.0,0.0,0.0,0.0
1639064113.7679806,165405,1639064113,766816632,base_imu,0.0,0.0,0.0,0.0,0.0,0.0,0.0,0.0,0.0,0.0,0.0,0.0,0.0,-1.6362462043762207,0.578838050365448,0.3142530024051666,0.0,0.0,0.0,0.0,0.0,0.0,0.0,0.0,0.0,-5.284003257751465,-5.298368453979492,-1.4460978507995605,0.0,0.0,0.0,0.0,0.0,0.0,0.0,0.0,0.0
1639064113.7780204,165406,1639064113,776856428,base_imu,0.0,0.0,0.0,0.0,0.0,0.0,0.0,0.0,0.0,0.0,0.0,0.0,0.0,-1.2181298732757568,0.3371562063694,0.3159840703010559,0.0,0.0,0.0,0.0,0.0,0.0,0.0,0.0,0.0,-4.316745758056641,-6.308721542358398,-1.6903064250946045,0.0,0.0,0.0,0.0,0.0,0.0,0.0,0.0,0.0
1639064113.7906342,165407,1639064113,789403172,base_imu,0.0,0.0,0.0,0.0,0.0,0.0,0.0,0.0,0.0,0.0,0.0,0.0,0.0,-0.8807073831558228,0.16884441673755646,0.31252196431159973,0.0,0.0,0.0,0.0,0.0,0.0,0.0,0.0,0.0,-2.3127987384796143,-7.161056995391846,-1.357512354850769,0.0,0.0,0.0,0.0,0.0,0.0,0.0,0.0,0.0
1639064113.8100598,165408,1639064113,808812777,base_imu,0.0,0.0,0.0,0.0,0.0,0.0,0.0,0.0,0.0,0.0,0.0,0.0,0.0,-0.7222492694854736,0.1257012039422989,0.24860608577728271,0.0,0.0,0.0,0.0,0.0,0.0,0.0,0.0,0.0,-1.194706678390503,-7.338228225708008,-0.9840168952941895,0.0,0.0,0.0,0.0,0.0,0.0,0.0,0.0,0.0
1639064113.8159506,165409,1639064113,814752656,base_imu,0.0,0.0,0.0,0.0,0.0,0.0,0.0,0.0,0.0,0.0,0.0,0.0,0.0,-0.2407497614622116,0.028362665325403214,-0.222640261054039,0.0,0.0,0.0,0.0,0.0,0.0,0.0,0.0,0.0,-0.7852981686592102,-7.2352776527404785,-0.9145850539207458,0.0,0.0,0.0,0.0,0.0,0.0,0.0,0.0,0.0
1639064113.8211515,165410,1639064113,819955550,base_imu,0.0,0.0,0.0,0.0,0.0,0.0,0.0,0.0,0.0,0.0,0.0,0.0,0.0,-0.10093380510807037,-0.0046605318784713745,-0.4303668439388275,0.0,0.0,0.0,0.0,0.0,0.0,0.0,0.0,0.0,-1.0558428764343262,-7.050923824310303,-0.7589619159698486,0.0,0.0,0.0,0.0,0.0,0.0,0.0,0.0,0.0
1639064113.8367822,165411,1639064113,835562232,base_imu,0.0,0.0,0.0,0.0,0.0,0.0,0.0,0.0,0.0,0.0,0.0,0.0,0.0,0.23315975069999695,-0.19361181557178497,-1.133175015449524,0.0,0.0,0.0,0.0,0.0,0.0,0.0,0.0,0.0,-3.332728624343872,-6.787561893463135,-0.047884032130241394,0.0,0.0,0.0,0.0,0.0,0.0,0.0,0.0,0.0
1639064113.847131,165412,1639064113,845714025,base_imu,0.0,0.0,0.0,0.0,0.0,0.0,0.0,0.0,0.0,0.0,0.0,0.0,0.0,0.256462424993515,-0.48229846358299255,-1.6342488527297974,0.0,0.0,0.0,0.0,0.0,0.0,0.0,0.0,0.0,-5.317522048950195,-6.380547523498535,0.8619126081466675,0.0,0.0,0.0,0.0,0.0,0.0,0.0,0.0,0.0
1639064113.8569179,165413,1639064113,855711821,base_imu,0.0,0.0,0.0,0.0,0.0,0.0,0.0,0.0,0.0,0.0,0.0,0.0,0.0,0.27403926849365234,-0.954210638999939,-2.0084228515625,0.0,0.0,0.0,0.0,0.0,0.0,0.0,0.0,0.0,-7.15626859664917,-5.600037574768066,1.2856862545013428,0.0,0.0,0.0,0.0,0.0,0.0,0.0,0.0,0.0
1639064113.8668976,165414,1639064113,865713617,base_imu,0.0,0.0,0.0,0.0,0.0,0.0,0.0,0.0,0.0,0.0,0.0,0.0,0.0,0.473110556602478,-1.5097460746765137,-2.129197359085083,0.0,0.0,0.0,0.0,0.0,0.0,0.0,0.0,0.0,-7.960720539093018,-4.359841346740723,1.1899182796478271,0.0,0.0,0.0,0.0,0.0,0.0,0.0,0.0,0.0
1639064113.8856552,165415,1639064113,884448236,base_imu,0.0,0.0,0.0,0.0,0.0,0.0,0.0,0.0,0.0,0.0,0.0,0.0,0.0,1.2667325735092163,-2.304699659347534,-2.0648820400238037,0.0,0.0,0.0,0.0,0.0,0.0,0.0,0.0,0.0,-8.638279914855957,-3.141192674636841,0.2777273952960968,0.0,0.0,0.0,0.0,0.0,0.0,0.0,0.0,0.0
1639064113.891938,165416,1639064113,890769107,base_imu,0.0,0.0,0.0,0.0,0.0,0.0,0.0,0.0,0.0,0.0,0.0,0.0,0.0,1.5849803686141968,-2.4929850101470947,-1.9975039958953857,0.0,0.0,0.0,0.0,0.0,0.0,0.0,0.0,0.0,-9.05247688293457,-2.784456491470337,-0.07661445438861847,0.0,0.0,0.0,0.0,0.0,0.0,0.0,0.0,0.0
1639064113.897456,165417,1639064113,896241995,base_imu,0.0,0.0,0.0,0.0,0.0,0.0,0.0,0.0,0.0,0.0,0.0,0.0,0.0,1.7973674535751343,-2.6483805179595947,-1.9128154516220093,0.0,0.0,0.0,0.0,0.0,0.0,0.0,0.0,0.0,-9.430760383605957,-2.2888567447662354,-0.2106897532939911,0.0,0.0,0.0,0.0,0.0,0.0,0.0,0.0,0.0
1639064113.9080658,165418,1639064113,906847779,base_imu,0.0,0.0,0.0,0.0,0.0,0.0,0.0,0.0,0.0,0.0,0.0,0.0,0.0,2.1511683464050293,-2.8451881408691406,-1.7399762868881226,0.0,0.0,0.0,0.0,0.0,0.0,0.0,0.0,0.0,-9.706093788146973,-1.3479355573654175,0.42856210470199585,0.0,0.0,0.0,0.0,0.0,0.0,0.0,0.0,0.0
1639064113.9169047,165419,1639064113,915694599,base_imu,0.0,0.0,0.0,0.0,0.0,0.0,0.0,0.0,0.0,0.0,0.0,0.0,0.0,2.730539083480835,-2.8336033821105957,-1.7979000806808472,0.0,0.0,0.0,0.0,0.0,0.0,0.0,0.0,0.0,-10.3333740234375,-0.304063618183136,0.021547814831137657,0.0,0.0,0.0,0.0,0.0,0.0,0.0,0.0,0.0
1639064113.9269133,165420,1639064113,925701395,base_imu,0.0,0.0,0.0,0.0,0.0,0.0,0.0,0.0,0.0,0.0,0.0,0.0,0.0,3.9984700679779053,-2.6036393642425537,-2.4102940559387207,0.0,0.0,0.0,0.0,0.0,0.0,0.0,0.0,0.0,-13.958195686340332,3.931279182434082,-2.7437551021575928,0.0,0.0,0.0,0.0,0.0,0.0,0.0,0.0,0.0
1639064113.9404051,165421,1639064113,939193120,base_imu,0.0,0.0,0.0,0.0,0.0,0.0,0.0,0.0,0.0,0.0,0.0,0.0,0.0,4.363190174102783,-2.9403960704803467,-3.6396090984344482,0.0,0.0,0.0,0.0,0.0,0.0,0.0,0.0,0.0,-19.613300323486328,15.966931343078613,-8.097189903259277,0.0,0.0,0.0,0.0,0.0,0.0,0.0,0.0,0.0
1639064113.94889,165422,1639064113,947656948,base_imu,0.0,0.0,0.0,0.0,0.0,0.0,0.0,0.0,0.0,0.0,0.0,0.0,0.0,4.363190174102783,-3.262105941772461,-3.847069263458252,0.0,0.0,0.0,0.0,0.0,0.0,0.0,0.0,0.0,-19.613300323486328,19.612701416015625,-7.548917770385742,0.0,0.0,0.0,0.0,0.0,0.0,0.0,0.0,0.0
1639064113.9580228,165423,1639064113,956825761,base_imu,0.0,0.0,0.0,0.0,0.0,0.0,0.0,0.0,0.0,0.0,0.0,0.0,0.0,3.06489896774292,-3.0462567806243896,-3.4234936237335205,0.0,0.0,0.0,0.0,0.0,0.0,0.0,0.0,0.0,-19.613300323486328,19.612701416015625,-4.666298866271973,0.0,0.0,0.0,0.0,0.0,0.0,0.0,0.0,0.0
1639064113.9675984,165424,1639064113,966335567,base_imu,0.0,0.0,0.0,0.0,0.0,0.0,0.0,0.0,0.0,0.0,0.0,0.0,0.0,2.1535651683807373,-1.913880705833435,-3.1987228393554688,0.0,0.0,0.0,0.0,0.0,0.0,0.0,0.0,0.0,-15.382745742797852,19.612701416015625,-1.0606313943862915,0.0,0.0,0.0,0.0,0.0,0.0,0.0,0.0,0.0
1639064113.9770722,165425,1639064113,975852373,base_imu,0.0,0.0,0.0,0.0,0.0,0.0,0.0,0.0,0.0,0.0,0.0,0.0,0.0,1.969673991203308,-1.1772503852844238,-3.3344109058380127,0.0,0.0,0.0,0.0,0.0,0.0,0.0,0.0,0.0,-15.667655944824219,19.086576461791992,1.0773907899856567,0.0,0.0,0.0,0.0,0.0,0.0,0.0,0.0,0.0
1639064113.9868991,165426,1639064113,985694173,base_imu,0.0,0.0,0.0,0.0,0.0,0.0,0.0,0.0,0.0,0.0,0.0,0.0,0.0,2.100435256958008,-1.2190619707107544,-3.6361470222473145,0.0,0.0,0.0,0.0,0.0,0.0,0.0,0.0,0.0,-17.887081146240234,16.824054718017578,0.8786720037460327,0.0,0.0,0.0,0.0,0.0,0.0,0.0,0.0,0.0
1639064113.999987,165427,1639064113,998575910,base_imu,0.0,0.0,0.0,0.0,0.0,0.0,0.0,0.0,0.0,0.0,0.0,0.0,0.0,2.3515713214874268,-1.4061490297317505,-3.8866171836853027,0.0,0.0,0.0,0.0,0.0,0.0,0.0,0.0,0.0,-18.7657527923584,17.32204818725586,0.7445967197418213,0.0,0.0,0.0,0.0,0.0,0.0,0.0,0.0,0.0
1639064114.0174105,165428,1639064114,16261550,base_imu,0.0,0.0,0.0,0.0,0.0,0.0,0.0,0.0,0.0,0.0,0.0,0.0,0.0,1.6427708864212036,-1.025183916091919,-3.499260425567627,0.0,0.0,0.0,0.0,0.0,0.0,0.0,0.0,0.0,-16.725893020629883,17.640478134155273,-0.49320554733276367,0.0,0.0,0.0,0.0,0.0,0.0,0.0,0.0,0.0
1639064114.0296314,165429,1639064114,26639339,base_imu,0.0,0.0,0.0,0.0,0.0,0.0,0.0,0.0,0.0,0.0,0.0,0.0,0.0,1.0775150060653687,-0.7452856302261353,-3.1075096130371094,0.0,0.0,0.0,0.0,0.0,0.0,0.0,0.0,0.0,-15.241487503051758,15.818490028381348,-0.35913026332855225,0.0,0.0,0.0,0.0,0.0,0.0,0.0,0.0,0.0
1639064114.042962,165430,1639064114,39785071,base_imu,0.0,0.0,0.0,0.0,0.0,0.0,0.0,0.0,0.0,0.0,0.0,0.0,0.0,0.7400924563407898,-0.614923894405365,-2.6591663360595703,0.0,0.0,0.0,0.0,0.0,0.0,0.0,0.0,0.0,-12.914323806762695,11.434706687927246,0.6631938815116882,0.0,0.0,0.0,0.0,0.0,0.0,0.0,0.0,0.0
1639064114.0532777,165431,1639064114,51941824,base_imu,0.0,0.0,0.0,0.0,0.0,0.0,0.0,0.0,0.0,0.0,0.0,0.0,0.0,0.7936220169067383,-0.7444866895675659,-2.3763387203216553,0.0,0.0,0.0,0.0,0.0,0.0,0.0,0.0,0.0,-11.777077674865723,8.372523307800293,1.2689268589019775,0.0,0.0,0.0,0.0,0.0,0.0,0.0,0.0,0.0
1639064114.0647507,165432,1639064114,63438590,base_imu,0.0,0.0,0.0,0.0,0.0,0.0,0.0,0.0,0.0,0.0,0.0,0.0,0.0,1.073253870010376,-0.9535448551177979,-2.038649797439575,0.0,0.0,0.0,0.0,0.0,0.0,0.0,0.0,0.0,-10.192116737365723,6.550535678863525,1.4149731397628784,0.0,0.0,0.0,0.0,0.0,0.0,0.0,0.0,0.0
1639064114.0761592,165433,1639064114,74818359,base_imu,0.0,0.0,0.0,0.0,0.0,0.0,0.0,0.0,0.0,0.0,0.0,0.0,0.0,1.4290522336959839,-1.1536813974380493,-1.7005615234375,0.0,0.0,0.0,0.0,0.0,0.0,0.0,0.0,0.0,-8.664615631103516,5.671863555908203,0.790086567401886,0.0,0.0,0.0,0.0,0.0,0.0,0.0,0.0,0.0
1639064114.087589,165434,1639064114,86238127,base_imu,0.0,0.0,0.0,0.0,0.0,0.0,0.0,0.0,0.0,0.0,0.0,0.0,0.0,1.8221348524093628,-1.367400050163269,-1.2918994426727295,0.0,0.0,0.0,0.0,0.0,0.0,0.0,0.0,0.0,-6.926425457000732,5.6407389640808105,0.05746084079146385,0.0,0.0,0.0,0.0,0.0,0.0,0.0,0.0,0.0
1639064114.1001348,165435,1639064114,98824871,base_imu,0.0,0.0,0.0,0.0,0.0,0.0,0.0,0.0,0.0,0.0,0.0,0.0,0.0,2.204697847366333,-1.5725966691970825,-0.8215851783752441,0.0,0.0,0.0,0.0,0.0,0.0,0.0,0.0,0.0,-5.051765441894531,5.336675643920898,-1.0845733880996704,0.0,0.0,0.0,0.0,0.0,0.0,0.0,0.0,0.0
1639064114.1107316,165436,1639064114,109421655,base_imu,0.0,0.0,0.0,0.0,0.0,0.0,0.0,0.0,0.0,0.0,0.0,0.0,0.0,2.385127067565918,-1.6912404298782349,-0.4008057415485382,0.0,0.0,0.0,0.0,0.0,0.0,0.0,0.0,0.0,-3.2585084438323975,4.9152960777282715,-1.9057844877243042,0.0,0.0,0.0,0.0,0.0,0.0,0.0,0.0,0.0
1639064114.1208925,165437,1639064114,119552449,base_imu,0.0,0.0,0.0,0.0,0.0,0.0,0.0,0.0,0.0,0.0,0.0,0.0,0.0,2.4647555351257324,-1.7636784315109253,0.0776311457157135,0.0,0.0,0.0,0.0,0.0,0.0,0.0,0.0,0.0,-0.6488286256790161,4.378994941711426,-2.3487117290496826,0.0,0.0,0.0,0.0,0.0,0.0,0.0,0.0,0.0
1639064114.1314342,165438,1639064114,129897239,base_imu,0.0,0.0,0.0,0.0,0.0,0.0,0.0,0.0,0.0,0.0,0.0,0.0,0.0,2.4058997631073,-1.825863242149353,0.46538740396499634,0.0,0.0,0.0,0.0,0.0,0.0,0.0,0.0,0.0,1.2234370708465576,3.6798880100250244,-2.786850690841675,0.0,0.0,0.0,0.0,0.0,0.0,0.0,0.0,0.0
1639064114.146219,165439,1639064114,144814936,base_imu,0.0,0.0,0.0,0.0,0.0,0.0,0.0,0.0,0.0,0.0,0.0,0.0,0.0,2.118011951446533,-1.7667410373687744,0.8784436583518982,0.0,0.0,0.0,0.0,0.0,0.0,0.0,0.0,0.0,4.9152960777282715,2.5977087020874023,-3.6846764087677,0.0,0.0,0.0,0.0,0.0,0.0,0.0,0.0,0.0
1639064114.1585236,165440,1639064114,154389741,base_imu,0.0,0.0,0.0,0.0,0.0,0.0,0.0,0.0,0.0,0.0,0.0,0.0,0.0,1.9648802280426025,-1.6571519374847412,1.050883412361145,0.0,0.0,0.0,0.0,0.0,0.0,0.0,0.0,0.0,6.921637058258057,2.561795711517334,-3.8259341716766357,0.0,0.0,0.0,0.0,0.0,0.0,0.0,0.0,0.0
1639064114.1705463,165441,1639064114,165298519,base_imu,0.0,0.0,0.0,0.0,0.0,0.0,0.0,0.0,0.0,0.0,0.0,0.0,0.0,1.7196030616760254,-1.4976286888122559,1.339303731918335,0.0,0.0,0.0,0.0,0.0,0.0,0.0,0.0,0.0,9.20091724395752,3.3279402256011963,-3.687070608139038,0.0,0.0,0.0,0.0,0.0,0.0,0.0,0.0,0.0
1639064114.1783123,165442,1639064114,173349355,base_imu,0.0,0.0,0.0,0.0,0.0,0.0,0.0,0.0,0.0,0.0,0.0,0.0,0.0,1.5801866054534912,-1.3418337106704712,1.5643408298492432,0.0,0.0,0.0,0.0,0.0,0.0,0.0,0.0,0.0,10.723628997802734,4.3861775398254395,-4.127603530883789,0.0,0.0,0.0,0.0,0.0,0.0,0.0,0.0,0.0
1639064114.192887,165443,1639064114,184676125,base_imu,0.0,0.0,0.0,0.0,0.0,0.0,0.0,0.0,0.0,0.0,0.0,0.0,0.0,1.4391722679138184,-0.9174590110778809,1.746501088142395,0.0,0.0,0.0,0.0,0.0,0.0,0.0,0.0,0.0,9.962272644042969,6.466738700866699,-5.509057998657227,0.0,0.0,0.0,0.0,0.0,0.0,0.0,0.0,0.0
1639064114.1994298,165444,1639064114,194706921,base_imu,0.0,0.0,0.0,0.0,0.0,0.0,0.0,0.0,0.0,0.0,0.0,0.0,0.0,1.2816462516784668,-0.6131928563117981,1.8226674795150757,0.0,0.0,0.0,0.0,0.0,0.0,0.0,0.0,0.0,7.869740962982178,7.084442615509033,-5.827486991882324,0.0,0.0,0.0,0.0,0.0,0.0,0.0,0.0,0.0
1639064114.2044117,165445,1639064114,201976773,base_imu,0.0,0.0,0.0,0.0,0.0,0.0,0.0,0.0,0.0,0.0,0.0,0.0,0.0,0.854608416557312,-0.18975022435188293,1.9270633459091187,0.0,0.0,0.0,0.0,0.0,0.0,0.0,0.0,0.0,4.55616569519043,7.275979042053223,-5.2911858558654785,0.0,0.0,0.0,0.0,0.0,0.0,0.0,0.0,0.0
1639064114.2126346,165446,1639064114,211075588,base_imu,0.0,0.0,0.0,0.0,0.0,0.0,0.0,0.0,0.0,0.0,0.0,0.0,0.0,0.43729105591773987,0.10812433809041977,2.0144150257110596,0.0,0.0,0.0,0.0,0.0,0.0,0.0,0.0,0.0,2.8347346782684326,6.98628044128418,-5.317522048950195,0.0,0.0,0.0,0.0,0.0,0.0,0.0,0.0,0.0
1639064114.2325902,165447,1639064114,225631292,base_imu,0.0,0.0,0.0,0.0,0.0,0.0,0.0,0.0,0.0,0.0,0.0,0.0,0.0,-0.15805861353874207,0.5291700959205627,2.19071626663208,0.0,0.0,0.0,0.0,0.0,0.0,0.0,0.0,0.0,1.2545616626739502,7.240066051483154,-4.062960147857666,0.0,0.0,0.0,0.0,0.0,0.0,0.0,0.0,0.0
1639064114.243769,165448,1639064114,231573171,base_imu,0.0,0.0,0.0,0.0,0.0,0.0,0.0,0.0,0.0,0.0,0.0,0.0,0.0,-0.44315001368522644,0.7459514141082764,2.322675943374634,0.0,0.0,0.0,0.0,0.0,0.0,0.0,0.0,0.0,0.8786720037460327,7.649474143981934,-2.3319523334503174,0.0,0.0,0.0,0.0,0.0,0.0,0.0,0.0,0.0
1639064114.2503428,165449,1639064114,244677905,base_imu,0.0,0.0,0.0,0.0,0.0,0.0,0.0,0.0,0.0,0.0,0.0,0.0,0.0,-0.7442203760147095,1.0760502815246582,2.6027073860168457,0.0,0.0,0.0,0.0,0.0,0.0,0.0,0.0,0.0,-0.6272808313369751,9.277531623840332,-0.16998831927776337,0.0,0.0,0.0,0.0,0.0,0.0,0.0,0.0,0.0
1639064114.2595646,165450,1639064114,252947737,base_imu,0.0,0.0,0.0,0.0,0.0,0.0,0.0,0.0,0.0,0.0,0.0,0.0,0.0,-0.8211857080459595,1.0716559886932373,2.679140090942383,0.0,0.0,0.0,0.0,0.0,0.0,0.0,0.0,0.0,-5.406107425689697,12.591106414794922,0.7637503147125244,0.0,0.0,0.0,0.0,0.0,0.0,0.0,0.0,0.0
1639064114.2671525,165451,1639064114,261230568,base_imu,0.0,0.0,0.0,0.0,0.0,0.0,0.0,0.0,0.0,0.0,0.0,0.0,0.0,-0.6864297986030579,1.2530173063278198,2.595383644104004,0.0,0.0,0.0,0.0,0.0,0.0,0.0,0.0,0.0,-9.854534149169922,15.241487503051758,-1.3982137441635132,0.0,0.0,0.0,0.0,0.0,0.0,0.0,0.0,0.0
1639064114.2719424,165452,1639064114,270616377,base_imu,0.0,0.0,0.0,0.0,0.0,0.0,0.0,0.0,0.0,0.0,0.0,0.0,0.0,-0.2829608619213104,1.832654356956482,2.2357237339019775,0.0,0.0,0.0,0.0,0.0,0.0,0.0,0.0,0.0,-15.86158561706543,19.612701416015625,-5.365406036376953,0.0,0.0,0.0,0.0,0.0,0.0,0.0,0.0,0.0
1639064114.2811382,165453,1639064114,279710193,base_imu,0.0,0.0,0.0,0.0,0.0,0.0,0.0,0.0,0.0,0.0,0.0,0.0,0.0,-0.75913405418396,2.244112730026245,2.297508955001831,0.0,0.0,0.0,0.0,0.0,0.0,0.0,0.0,0.0,-14.015656471252441,19.612701416015625,-2.5282769203186035,0.0,0.0,0.0,0.0,0.0,0.0,0.0,0.0,0.0
1639064114.289511,165454,1639064114,286872047,base_imu,0.0,0.0,0.0,0.0,0.0,0.0,0.0,0.0,0.0,0.0,0.0,0.0,0.0,-1.3793842792510986,2.839195966720581,2.5531725883483887,0.0,0.0,0.0,0.0,0.0,0.0,0.0,0.0,0.0,-9.787496566772461,19.612701416015625,1.0438718795776367,0.0,0.0,0.0,0.0,0.0,0.0,0.0,0.0,0.0
1639064114.3057926,165455,1639064114,300857762,base_imu,0.0,0.0,0.0,0.0,0.0,0.0,0.0,0.0,0.0,0.0,0.0,0.0,0.0,-1.5763250589370728,3.36077618598938,2.49484920501709,0.0,0.0,0.0,0.0,0.0,0.0,0.0,0.0,0.0,-10.934318542480469,19.163190841674805,7.237671852111816,0.0,0.0,0.0,0.0,0.0,0.0,0.0,0.0,0.0
1639064114.3144896,165456,1639064114,312985516,base_imu,0.0,0.0,0.0,0.0,0.0,0.0,0.0,0.0,0.0,0.0,0.0,0.0,0.0,-0.6832339763641357,2.6262762546539307,2.2752716541290283,0.0,0.0,0.0,0.0,0.0,0.0,0.0,0.0,0.0,-13.632584571838379,19.612701416015625,9.308655738830566,0.0,0.0,0.0,0.0,0.0,0.0,0.0,0.0,0.0
1639064114.3279953,165457,1639064114,323915294,base_imu,0.0,0.0,0.0,0.0,0.0,0.0,0.0,0.0,0.0,0.0,0.0,0.0,0.0,-0.25659558176994324,2.186854839324951,2.117079973220825,0.0,0.0,0.0,0.0,0.0,0.0,0.0,0.0,0.0,-12.354080200195312,19.612701416015625,7.489062786102295,0.0,0.0,0.0,0.0,0.0,0.0,0.0,0.0,0.0
1639064114.339051,165458,1639064114,332676115,base_imu,0.0,0.0,0.0,0.0,0.0,0.0,0.0,0.0,0.0,0.0,0.0,0.0,0.0,-0.5179848074913025,2.109889268875122,2.0711402893066406,0.0,0.0,0.0,0.0,0.0,0.0,0.0,0.0,0.0,-11.925518035888672,19.612701416015625,5.52821159362793,0.0,0.0,0.0,0.0,0.0,0.0,0.0,0.0,0.0
1639064114.3546157,165459,1639064114,341353939,base_imu,0.0,0.0,0.0,0.0,0.0,0.0,0.0,0.0,0.0,0.0,0.0,0.0,0.0,-1.5229287147521973,2.17353892326355,1.995240330696106,0.0,0.0,0.0,0.0,0.0,0.0,0.0,0.0,0.0,-11.061211585998535,19.612701416015625,2.9233202934265137,0.0,0.0,0.0,0.0,0.0,0.0,0.0,0.0,0.0
1639064114.3552527,165460,1639064114,350711749,base_imu,0.0,0.0,0.0,0.0,0.0,0.0,0.0,0.0,0.0,0.0,0.0,0.0,0.0,-2.358761787414551,2.1871211528778076,1.7666078805923462,0.0,0.0,0.0,0.0,0.0,0.0,0.0,0.0,0.0,-10.139444351196289,19.612701416015625,1.6974890232086182,0.0,0.0,0.0,0.0,0.0,0.0,0.0,0.0,0.0
1639064114.3775373,165461,1639064114,359723565,base_imu,0.0,0.0,0.0,0.0,0.0,0.0,0.0,0.0,0.0,0.0,0.0,0.0,0.0,-2.7284085750579834,2.1985726356506348,1.4148043394088745,0.0,0.0,0.0,0.0,0.0,0.0,0.0,0.0,0.0,-9.129091262817383,15.593435287475586,1.7717092037200928,0.0,0.0,0.0,0.0,0.0,0.0,0.0,0.0,0.0
1639064114.3782892,165462,1639064114,366487428,base_imu,0.0,0.0,0.0,0.0,0.0,0.0,0.0,0.0,0.0,0.0,0.0,0.0,0.0,-2.81762433052063,2.167280435562134,1.2167983055114746,0.0,0.0,0.0,0.0,0.0,0.0,0.0,0.0,0.0,-8.971073150634766,11.209651947021484,2.5234885215759277,0.0,0.0,0.0,0.0,0.0,0.0,0.0,0.0,0.0
1639064114.3827431,165463,1639064114,376463225,base_imu,0.0,0.0,0.0,0.0,0.0,0.0,0.0,0.0,0.0,0.0,0.0,0.0,0.0,-2.954111337661743,1.9941750764846802,1.211072564125061,0.0,0.0,0.0,0.0,0.0,0.0,0.0,0.0,0.0,-9.17936897277832,7.1442975997924805,2.7533318996429443,0.0,0.0,0.0,0.0,0.0,0.0,0.0,0.0,0.0
1639064114.4046416,165464,1639064114,393431880,base_imu,0.0,0.0,0.0,0.0,0.0,0.0,0.0,0.0,0.0,0.0,0.0,0.0,0.0,-2.9112346172332764,1.5789881944656372,1.2148009538650513,0.0,0.0,0.0,0.0,0.0,0.0,0.0,0.0,0.0,-9.220070838928223,3.0358476638793945,1.6328455209732056,0.0,0.0,0.0,0.0,0.0,0.0,0.0,0.0,0.0
1639064114.4081845,165465,1639064114,399088765,base_imu,0.0,0.0,0.0,0.0,0.0,0.0,0.0,0.0,0.0,0.0,0.0,0.0,0.0,-2.726278066635132,1.4130733013153076,1.2068114280700684,0.0,0.0,0.0,0.0,0.0,0.0,0.0,0.0,0.0,-8.834604263305664,2.7557260990142822,1.5586252212524414,0.0,0.0,0.0,0.0,0.0,0.0,0.0,0.0,0.0
1639064114.4274771,165466,1639064114,409642550,base_imu,0.0,0.0,0.0,0.0,0.0,0.0,0.0,0.0,0.0,0.0,0.0,0.0,0.0,-2.292715311050415,1.2393020391464233,1.1777830123901367,0.0,0.0,0.0,0.0,0.0,0.0,0.0,0.0,0.0,-8.145073890686035,2.1571757793426514,1.192312479019165,0.0,0.0,0.0,0.0,0.0,0.0,0.0,0.0,0.0
1639064114.4281151,165467,1639064114,419336353,base_imu,0.0,0.0,0.0,0.0,0.0,0.0,0.0,0.0,0.0,0.0,0.0,0.0,0.0,-2.1828598976135254,0.957805871963501,1.1958924531936646,0.0,0.0,0.0,0.0,0.0,0.0,0.0,0.0,0.0,-6.71573543548584,1.2880804538726807,0.9744400978088379,0.0,0.0,0.0,0.0,0.0,0.0,0.0,0.0,0.0
1639064114.432032,165468,1639064114,430754121,base_imu,0.0,0.0,0.0,0.0,0.0,0.0,0.0,0.0,0.0,0.0,0.0,0.0,0.0,-2.0876519680023193,0.8785768151283264,1.1006845235824585,0.0,0.0,0.0,0.0,0.0,0.0,0.0,0.0,0.0,-6.069301128387451,0.22505494952201843,0.24899697303771973,0.0,0.0,0.0,0.0,0.0,0.0,0.0,0.0,0.0
1639064114.4448547,165469,1639064114,442989872,base_imu,0.0,0.0,0.0,0.0,0.0,0.0,0.0,0.0,0.0,0.0,0.0,0.0,0.0,-1.987250804901123,0.911999523639679,0.954210638999939,0.0,0.0,0.0,0.0,0.0,0.0,0.0,0.0,0.0,-5.738901615142822,-0.9169792532920837,-0.1173158809542656,0.0,0.0,0.0,0.0,0.0,0.0,0.0,0.0,0.0
1639064114.4548297,165470,1639064114,453330662,base_imu,0.0,0.0,0.0,0.0,0.0,0.0,0.0,0.0,0.0,0.0,0.0,0.0,0.0,-1.8232001066207886,0.9361011385917664,0.8476842045783997,0.0,0.0,0.0,0.0,0.0,0.0,0.0,0.0,0.0,-5.904101371765137,-1.8938134908676147,-0.06224924325942993,0.0,0.0,0.0,0.0,0.0,0.0,0.0,0.0,0.0
1639064114.4739892,165471,1639064114,460271521,base_imu,0.0,0.0,0.0,0.0,0.0,0.0,0.0,0.0,0.0,0.0,0.0,0.0,0.0,-1.5361113548278809,0.9137305617332458,0.707868218421936,0.0,0.0,0.0,0.0,0.0,0.0,0.0,0.0,0.0,-6.100425720214844,-2.6240451335906982,-0.019153613597154617,0.0,0.0,0.0,0.0,0.0,0.0,0.0,0.0,0.0
1639064114.481697,165472,1639064114,477969161,base_imu,0.0,0.0,0.0,0.0,0.0,0.0,0.0,0.0,0.0,0.0,0.0,0.0,0.0,-0.9849701523780823,0.7556719779968262,0.5071990489959717,0.0,0.0,0.0,0.0,0.0,0.0,0.0,0.0,0.0,-6.584054470062256,-3.6607344150543213,-0.569819986820221,0.0,0.0,0.0,0.0,0.0,0.0,0.0,0.0,0.0
1639064114.491107,165473,1639064114,487328971,base_imu,0.0,0.0,0.0,0.0,0.0,0.0,0.0,0.0,0.0,0.0,0.0,0.0,0.0,-0.7227818965911865,0.6049370169639587,0.4526042342185974,0.0,0.0,0.0,0.0,0.0,0.0,0.0,0.0,0.0,-6.572083473205566,-4.311957359313965,-0.9169792532920837,0.0,0.0,0.0,0.0,0.0,0.0,0.0,0.0,0.0
1639064114.5036798,165474,1639064114,498691739,base_imu,0.0,0.0,0.0,0.0,0.0,0.0,0.0,0.0,0.0,0.0,0.0,0.0,0.0,-0.4049336314201355,0.26458504796028137,0.40453416109085083,0.0,0.0,0.0,0.0,0.0,0.0,0.0,0.0,0.0,-6.320692539215088,-5.310339450836182,-1.302445650100708,0.0,0.0,0.0,0.0,0.0,0.0,0.0,0.0,0.0
1639064114.5209713,165475,1639064114,509805513,base_imu,0.0,0.0,0.0,0.0,0.0,0.0,0.0,0.0,0.0,0.0,0.0,0.0,0.0,-0.19467706978321075,-0.1306280493736267,0.3849599361419678,0.0,0.0,0.0,0.0,0.0,0.0,0.0,0.0,0.0,-5.91128396987915,-6.517016887664795,-1.4293383359909058,0.0,0.0,0.0,0.0,0.0,0.0,0.0,0.0,0.0
1639064114.5258062,165476,1639064114,518129344,base_imu,0.0,0.0,0.0,0.0,0.0,0.0,0.0,0.0,0.0,0.0,0.0,0.0,0.0,-0.11278486996889114,-0.2948119342327118,0.38469362258911133,0.0,0.0,0.0,0.0,0.0,0.0,0.0,0.0,0.0,-5.805939197540283,-7.094019412994385,-1.3263877630233765,0.0,0.0,0.0,0.0,0.0,0.0,0.0,0.0,0.0
1639064114.531992,165477,1639064114,523348238,base_imu,0.0,0.0,0.0,0.0,0.0,0.0,0.0,0.0,0.0,0.0,0.0,0.0,0.0,0.03555320203304291,-0.6302370429039001,0.40067258477211,0.0,0.0,0.0,0.0,0.0,0.0,0.0,0.0,0.0,-5.2480902671813965,-8.576030731201172,-1.1444283723831177,0.0,0.0,0.0,0.0,0.0,0.0,0.0,0.0,0.0
1639064114.535054,165478,1639064114,533459032,base_imu,0.0,0.0,0.0,0.0,0.0,0.0,0.0,0.0,0.0,0.0,0.0,0.0,0.0,0.2775013744831085,-1.0295780897140503,0.40466731786727905,0.0,0.0,0.0,0.0,0.0,0.0,0.0,0.0,0.0,-4.443638324737549,-10.47942066192627,-0.9265560507774353,0.0,0.0,0.0,0.0,0.0,0.0,0.0,0.0,0.0
1639064114.5498676,165479,1639064114,540349892,base_imu,0.0,0.0,0.0,0.0,0.0,0.0,0.0,0.0,0.0,0.0,0.0,0.0,0.0,0.5844306945800781,-1.2764531373977661,0.3498062193393707,0.0,0.0,0.0,0.0,0.0,0.0,0.0,0.0,0.0,-3.737348794937134,-11.616666793823242,-0.790086567401886,0.0,0.0,0.0,0.0,0.0,0.0,0.0,0.0,0.0
1639064114.5612094,165480,1639064114,554522604,base_imu,0.0,0.0,0.0,0.0,0.0,0.0,0.0,0.0,0.0,0.0,0.0,0.0,0.0,1.3054815530776978,-1.5860456228256226,0.15499597787857056,0.0,0.0,0.0,0.0,0.0,0.0,0.0,0.0,0.0,-3.1052794456481934,-11.944671630859375,-1.2330138683319092,0.0,0.0,0.0,0.0,0.0,0.0,0.0,0.0,0.0
1639064114.5695143,165481,1639064114,562853435,base_imu,0.0,0.0,0.0,0.0,0.0,0.0,0.0,0.0,0.0,0.0,0.0,0.0,0.0,1.7160078287124634,-1.7343837022781372,-0.02436792477965355,0.0,0.0,0.0,0.0,0.0,0.0,0.0,0.0,0.0,-3.5673604011535645,-11.434706687927246,-1.4987702369689941,0.0,0.0,0.0,0.0,0.0,0.0,0.0,0.0,0.0
1639064114.583157,165482,1639064114,571164266,base_imu,0.0,0.0,0.0,0.0,0.0,0.0,0.0,0.0,0.0,0.0,0.0,0.0,0.0,2.13838529586792,-1.9466376304626465,-0.2316950112581253,0.0,0.0,0.0,0.0,0.0,0.0,0.0,0.0,0.0,-4.213794708251953,-10.247182846069336,-1.8602946996688843,0.0,0.0,0.0,0.0,0.0,0.0,0.0,0.0,0.0
1639064114.6011636,165483,1639064114,588012923,base_imu,0.0,0.0,0.0,0.0,0.0,0.0,0.0,0.0,0.0,0.0,0.0,0.0,0.0,2.429335594177246,-2.1738052368164062,-0.4307663142681122,0.0,0.0,0.0,0.0,0.0,0.0,0.0,0.0,0.0,-5.542576789855957,-8.530540466308594,-2.1787235736846924,0.0,0.0,0.0,0.0,0.0,0.0,0.0,0.0,0.0
1639064114.6013668,165484,1639064114,589228898,base_imu,0.0,0.0,0.0,0.0,0.0,0.0,0.0,0.0,0.0,0.0,0.0,0.0,0.0,2.7033748626708984,-2.5628931522369385,-0.630902886390686,0.0,0.0,0.0,0.0,0.0,0.0,0.0,0.0,0.0,-6.8043212890625,-5.990292549133301,-1.7334020137786865,0.0,0.0,0.0,0.0,0.0,0.0,0.0,0.0,0.0
1639064114.6014895,165485,1639064114,596481751,base_imu,0.0,0.0,0.0,0.0,0.0,0.0,0.0,0.0,0.0,0.0,0.0,0.0,0.0,2.799781322479248,-2.8832714557647705,-0.614923894405365,0.0,0.0,0.0,0.0,0.0,0.0,0.0,0.0,0.0,-6.818686485290527,-3.646369218826294,-0.6919242739677429,0.0,0.0,0.0,0.0,0.0,0.0,0.0,0.0,0.0
1639064114.6188734,165486,1639064114,606459548,base_imu,0.0,0.0,0.0,0.0,0.0,0.0,0.0,0.0,0.0,0.0,0.0,0.0,0.0,2.8333370685577393,-3.4210968017578125,-0.6053364872932434,0.0,0.0,0.0,0.0,0.0,0.0,0.0,0.0,0.0,-7.3454108238220215,-0.11013327538967133,-1.0749965906143188,0.0,0.0,0.0,0.0,0.0,0.0,0.0,0.0,0.0
1639064114.6361809,165487,1639064114,623022211,base_imu,0.0,0.0,0.0,0.0,0.0,0.0,0.0,0.0,0.0,0.0,0.0,0.0,0.0,4.363190174102783,-2.900315523147583,-0.7314372062683105,0.0,0.0,0.0,0.0,0.0,0.0,0.0,0.0,0.0,-14.733917236328125,14.930241584777832,-14.745887756347656,0.0,0.0,0.0,0.0,0.0,0.0,0.0,0.0,0.0
1639064114.636333,165488,1639064114,634444979,base_imu,0.0,0.0,0.0,0.0,0.0,0.0,0.0,0.0,0.0,0.0,0.0,0.0,0.0,4.363190174102783,-4.363323211669922,-2.633466958999634,0.0,0.0,0.0,0.0,0.0,0.0,0.0,0.0,0.0,-17.68357276916504,19.612701416015625,-16.867151260375977,0.0,0.0,0.0,0.0,0.0,0.0,0.0,0.0,0.0
1639064114.6490276,165489,1639064114,642876807,base_imu,0.0,0.0,0.0,0.0,0.0,0.0,0.0,0.0,0.0,0.0,0.0,0.0,0.0,3.457981586456299,-4.363323211669922,-3.6083168983459473,0.0,0.0,0.0,0.0,0.0,0.0,0.0,0.0,0.0,-19.613300323486328,19.612701416015625,-12.222399711608887,0.0,0.0,0.0,0.0,0.0,0.0,0.0,0.0,0.0
1639064114.6561396,165490,1639064114,651454633,base_imu,0.0,0.0,0.0,0.0,0.0,0.0,0.0,0.0,0.0,0.0,0.0,0.0,0.0,1.733052134513855,-4.363323211669922,-3.7346839904785156,0.0,0.0,0.0,0.0,0.0,0.0,0.0,0.0,0.0,-19.44331169128418,19.612701416015625,-6.7013702392578125,0.0,0.0,0.0,0.0,0.0,0.0,0.0,0.0,0.0
1639064114.6645734,165491,1639064114,658713485,base_imu,0.0,0.0,0.0,0.0,0.0,0.0,0.0,0.0,0.0,0.0,0.0,0.0,0.0,1.1599397659301758,-3.44146990776062,-3.639209747314453,0.0,0.0,0.0,0.0,0.0,0.0,0.0,0.0,0.0,-13.797783851623535,19.612701416015625,-1.5753847360610962,0.0,0.0,0.0,0.0,0.0,0.0,0.0,0.0,0.0
1639064114.6746082,165492,1639064114,667379309,base_imu,0.0,0.0,0.0,0.0,0.0,0.0,0.0,0.0,0.0,0.0,0.0,0.0,0.0,0.321177214384079,-1.9125491380691528,-3.8000645637512207,0.0,0.0,0.0,0.0,0.0,0.0,0.0,0.0,0.0,-9.342174530029297,19.612701416015625,2.8778305053710938,0.0,0.0,0.0,0.0,0.0,0.0,0.0,0.0,0.0
1639064114.6797771,165493,1639064114,677320107,base_imu,0.0,0.0,0.0,0.0,0.0,0.0,0.0,0.0,0.0,0.0,0.0,0.0,0.0,0.14540860056877136,-1.4868428707122803,-4.095009803771973,0.0,0.0,0.0,0.0,0.0,0.0,0.0,0.0,0.0,-13.785813331604004,19.612701416015625,-0.24420857429504395,0.0,0.0,0.0,0.0,0.0,0.0,0.0,0.0,0.0
1639064114.6984367,165494,1639064114,695407739,base_imu,0.0,0.0,0.0,0.0,0.0,0.0,0.0,0.0,0.0,0.0,0.0,0.0,0.0,1.5769908428192139,-2.239319086074829,-4.180630207061768,0.0,0.0,0.0,0.0,0.0,0.0,0.0,0.0,0.0,-19.613300323486328,16.66364288330078,-7.15626859664917,0.0,0.0,0.0,0.0,0.0,0.0,0.0,0.0,0.0
1639064114.7157984,165495,1639064114,714635348,base_imu,0.0,0.0,0.0,0.0,0.0,0.0,0.0,0.0,0.0,0.0,0.0,0.0,0.0,0.11784487962722778,-1.431449055671692,-3.6713006496429443,0.0,0.0,0.0,0.0,0.0,0.0,0.0,0.0,0.0,-16.563087463378906,11.133037567138672,-3.8738183975219727,0.0,0.0,0.0,0.0,0.0,0.0,0.0,0.0,0.0
1639064114.726226,165496,1639064114,724769142,base_imu,0.0,0.0,0.0,0.0,0.0,0.0,0.0,0.0,0.0,0.0,0.0,0.0,0.0,0.48722532391548157,-1.0876350402832031,-3.7072534561157227,0.0,0.0,0.0,0.0,0.0,0.0,0.0,0.0,0.0,-17.293317794799805,12.619836807250977,-1.4987702369689941,0.0,0.0,0.0,0.0,0.0,0.0,0.0,0.0,0.0
1639064114.7359948,165497,1639064114,734774939,base_imu,0.0,0.0,0.0,0.0,0.0,0.0,0.0,0.0,0.0,0.0,0.0,0.0,0.0,1.3554158210754395,-1.3839116096496582,-3.5380094051361084,0.0,0.0,0.0,0.0,0.0,0.0,0.0,0.0,0.0,-17.489643096923828,14.104242324829102,-0.48123452067375183,0.0,0.0,0.0,0.0,0.0,0.0,0.0,0.0,0.0
1639064114.7461667,165498,1639064114,744973731,base_imu,0.0,0.0,0.0,0.0,0.0,0.0,0.0,0.0,0.0,0.0,0.0,0.0,0.0,2.1015005111694336,-1.8254637718200684,-3.0848727226257324,0.0,0.0,0.0,0.0,0.0,0.0,0.0,0.0,0.0,-15.325284957885742,13.110648155212402,-0.07182604819536209,0.0,0.0,0.0,0.0,0.0,0.0,0.0,0.0,0.0
1639064114.7617095,165499,1639064114,760517415,base_imu,0.0,0.0,0.0,0.0,0.0,0.0,0.0,0.0,0.0,0.0,0.0,0.0,0.0,2.644918441772461,-2.3728766441345215,-2.3627564907073975,0.0,0.0,0.0,0.0,0.0,0.0,0.0,0.0,0.0,-11.69806957244873,10.599130630493164,-0.31842881441116333,0.0,0.0,0.0,0.0,0.0,0.0,0.0,0.0,0.0
1639064114.7669463,165500,1639064114,765847307,base_imu,0.0,0.0,0.0,0.0,0.0,0.0,0.0,0.0,0.0,0.0,0.0,0.0,0.0,2.779141664505005,-2.491387128829956,-2.1923141479492188,0.0,0.0,0.0,0.0,0.0,0.0,0.0,0.0,0.0,-10.319008827209473,10.079588890075684,-0.2968810200691223,0.0,0.0,0.0,0.0,0.0,0.0,0.0,0.0,0.0
1639064114.785517,165501,1639064114,784362930,base_imu,0.0,0.0,0.0,0.0,0.0,0.0,0.0,0.0,0.0,0.0,0.0,0.0,0.0,2.7226827144622803,-2.7770111560821533,-1.6825851202011108,0.0,0.0,0.0,0.0,0.0,0.0,0.0,0.0,0.0,-7.079654216766357,10.187328338623047,-0.9313444495201111,0.0,0.0,0.0,0.0,0.0,0.0,0.0,0.0,0.0
1639064114.790696,165502,1639064114,789564824,base_imu,0.0,0.0,0.0,0.0,0.0,0.0,0.0,0.0,0.0,0.0,0.0,0.0,0.0,2.610696792602539,-2.7788753509521484,-1.5081480741500854,0.0,0.0,0.0,0.0,0.0,0.0,0.0,0.0,0.0,-6.2392897605896,10.096348762512207,-1.4077905416488647,0.0,0.0,0.0,0.0,0.0,0.0,0.0,0.0,0.0
1639064114.8025386,165503,1639064114,801354585,base_imu,0.0,0.0,0.0,0.0,0.0,0.0,0.0,0.0,0.0,0.0,0.0,0.0,0.0,2.382596969604492,-2.7140274047851562,-1.211605191230774,0.0,0.0,0.0,0.0,0.0,0.0,0.0,0.0,0.0,-5.104437828063965,9.806650161743164,-2.3942017555236816,0.0,0.0,0.0,0.0,0.0,0.0,0.0,0.0,0.0
1639064114.8124254,165504,1639064114,804697517,base_imu,0.0,0.0,0.0,0.0,0.0,0.0,0.0,0.0,0.0,0.0,0.0,0.0,0.0,2.1184115409851074,-2.6249446868896484,-0.9510148167610168,0.0,0.0,0.0,0.0,0.0,0.0,0.0,0.0,0.0,-4.031835556030273,9.311050415039062,-3.0621838569641113,0.0,0.0,0.0,0.0,0.0,0.0,0.0,0.0,0.0
1639064114.8195982,165505,1639064114,816486277,base_imu,0.0,0.0,0.0,0.0,0.0,0.0,0.0,0.0,0.0,0.0,0.0,0.0,0.0,1.570865511894226,-2.4455807209014893,-0.550209105014801,0.0,0.0,0.0,0.0,0.0,0.0,0.0,0.0,0.0,-1.908178687095642,7.843404769897461,-4.060565948486328,0.0,0.0,0.0,0.0,0.0,0.0,0.0,0.0,0.0
1639064114.826298,165506,1639064114,824777108,base_imu,0.0,0.0,0.0,0.0,0.0,0.0,0.0,0.0,0.0,0.0,0.0,0.0,0.0,1.183375597000122,-2.324540138244629,-0.32637038826942444,0.0,0.0,0.0,0.0,0.0,0.0,0.0,0.0,0.0,-0.3926490843296051,6.70376443862915,-4.4292731285095215,0.0,0.0,0.0,0.0,0.0,0.0,0.0,0.0,0.0
1639064114.8436327,165507,1639064114,842358751,base_imu,0.0,0.0,0.0,0.0,0.0,0.0,0.0,0.0,0.0,0.0,0.0,0.0,0.0,0.7744472622871399,-2.094576120376587,-0.047803740948438644,0.0,0.0,0.0,0.0,0.0,0.0,0.0,0.0,0.0,3.5170822143554688,4.788403511047363,-5.382165431976318,0.0,0.0,0.0,0.0,0.0,0.0,0.0,0.0,0.0
1639064114.8495436,165508,1639064114,847988636,base_imu,0.0,0.0,0.0,0.0,0.0,0.0,0.0,0.0,0.0,0.0,0.0,0.0,0.0,0.7576693296432495,-1.978595495223999,0.07257113605737686,0.0,0.0,0.0,0.0,0.0,0.0,0.0,0.0,0.0,5.035006046295166,4.944026470184326,-5.971138954162598,0.0,0.0,0.0,0.0,0.0,0.0,0.0,0.0,0.0
1639064114.8627603,165509,1639064114,861591360,base_imu,0.0,0.0,0.0,0.0,0.0,0.0,0.0,0.0,0.0,0.0,0.0,0.0,0.0,0.648479700088501,-1.7852500677108765,0.509196400642395,0.0,0.0,0.0,0.0,0.0,0.0,0.0,0.0,0.0,8.157045364379883,6.04775333404541,-6.294356346130371,0.0,0.0,0.0,0.0,0.0,0.0,0.0,0.0,0.0
1639064114.8680043,165510,1639064114,866892252,base_imu,0.0,0.0,0.0,0.0,0.0,0.0,0.0,0.0,0.0,0.0,0.0,0.0,0.0,0.5494101047515869,-1.6538230180740356,0.7137271761894226,0.0,0.0,0.0,0.0,0.0,0.0,0.0,0.0,0.0,9.380481719970703,6.418854713439941,-6.665457248687744,0.0,0.0,0.0,0.0,0.0,0.0,0.0,0.0,0.0
1639064114.87594,165511,1639064114,874786091,base_imu,0.0,0.0,0.0,0.0,0.0,0.0,0.0,0.0,0.0,0.0,0.0,0.0,0.0,0.2965430021286011,-1.4486265182495117,0.9825732707977295,0.0,0.0,0.0,0.0,0.0,0.0,0.0,0.0,0.0,11.133037567138672,6.780379295349121,-7.180210590362549,0.0,0.0,0.0,0.0,0.0,0.0,0.0,0.0,0.0
1639064114.8859448,165512,1639064114,884779888,base_imu,0.0,0.0,0.0,0.0,0.0,0.0,0.0,0.0,0.0,0.0,0.0,0.0,0.0,-0.20785972476005554,-1.0060091018676758,1.2423646450042725,0.0,0.0,0.0,0.0,0.0,0.0,0.0,0.0,0.0,12.11705493927002,6.761225700378418,-7.316680431365967,0.0,0.0,0.0,0.0,0.0,0.0,0.0,0.0,0.0
1639064114.9010177,165513,1639064114,899857582,base_imu,0.0,0.0,0.0,0.0,0.0,0.0,0.0,0.0,0.0,0.0,0.0,0.0,0.0,-0.8109325766563416,-0.20532971620559692,1.4474281072616577,0.0,0.0,0.0,0.0,0.0,0.0,0.0,0.0,0.0,10.438718795776367,5.185840606689453,-6.890512466430664,0.0,0.0,0.0,0.0,0.0,0.0,0.0,0.0,0.0
1639064114.9175792,165514,1639064114,916490243,base_imu,0.0,0.0,0.0,0.0,0.0,0.0,0.0,0.0,0.0,0.0,0.0,0.0,0.0,-0.454734742641449,0.3063966929912567,1.7018930912017822,0.0,0.0,0.0,0.0,0.0,0.0,0.0,0.0,0.0,4.666298866271973,4.02465295791626,-4.398148536682129,0.0,0.0,0.0,0.0,0.0,0.0,0.0,0.0,0.0
1639064114.927951,165515,1639064114,926777034,base_imu,0.0,0.0,0.0,0.0,0.0,0.0,0.0,0.0,0.0,0.0,0.0,0.0,0.0,0.14700649678707123,0.35819515585899353,1.9728697538375854,0.0,0.0,0.0,0.0,0.0,0.0,0.0,0.0,0.0,1.7286136150360107,4.321534156799316,-4.280832767486572,0.0,0.0,0.0,0.0,0.0,0.0,0.0,0.0,0.0
1639064114.93777,165516,1639064114,936601834,base_imu,0.0,0.0,0.0,0.0,0.0,0.0,0.0,0.0,0.0,0.0,0.0,0.0,0.0,0.7403587698936462,0.4826979339122772,2.2939138412475586,0.0,0.0,0.0,0.0,0.0,0.0,0.0,0.0,0.0,0.22744916379451752,4.632780075073242,-4.1395745277404785,0.0,0.0,0.0,0.0,0.0,0.0,0.0,0.0,0.0
1639064114.9478536,165517,1639064114,946670630,base_imu,0.0,0.0,0.0,0.0,0.0,0.0,0.0,0.0,0.0,0.0,0.0,0.0,0.0,1.1998872756958008,0.7748467326164246,2.6696858406066895,0.0,0.0,0.0,0.0,0.0,0.0,0.0,0.0,0.0,1.0893617868423462,5.837063789367676,-2.451662540435791,0.0,0.0,0.0,0.0,0.0,0.0,0.0,0.0,0.0
1639064114.9577875,165518,1639064114,956638427,base_imu,0.0,0.0,0.0,0.0,0.0,0.0,0.0,0.0,0.0,0.0,0.0,0.0,0.0,1.295760989189148,1.0883008241653442,3.0309436321258545,0.0,0.0,0.0,0.0,0.0,0.0,0.0,0.0,0.0,1.8411411046981812,8.243236541748047,-0.5147533416748047,0.0,0.0,0.0,0.0,0.0,0.0,0.0,0.0,0.0
1639064114.9680662,165519,1639064114,966922218,base_imu,0.0,0.0,0.0,0.0,0.0,0.0,0.0,0.0,0.0,0.0,0.0,0.0,0.0,0.9832390546798706,1.399224877357483,3.3189644813537598,0.0,0.0,0.0,0.0,0.0,0.0,0.0,0.0,0.0,0.26815059781074524,11.834538459777832,0.3926490843296051,0.0,0.0,0.0,0.0,0.0,0.0,0.0,0.0,0.0
1639064114.9781039,165520,1639064114,976919015,base_imu,0.0,0.0,0.0,0.0,0.0,0.0,0.0,0.0,0.0,0.0,0.0,0.0,0.0,0.2942793071269989,1.7889784574508667,3.4293525218963623,0.0,0.0,0.0,0.0,0.0,0.0,0.0,0.0,0.0,-3.3949780464172363,16.395492553710938,0.4429273009300232,0.0,0.0,0.0,0.0,0.0,0.0,0.0,0.0,0.0
1639064114.9877908,165521,1639064114,986600818,base_imu,0.0,0.0,0.0,0.0,0.0,0.0,0.0,0.0,0.0,0.0,0.0,0.0,0.0,-0.2455434501171112,2.208559513092041,3.292332887649536,0.0,0.0,0.0,0.0,0.0,0.0,0.0,0.0,0.0,-6.9910688400268555,19.612701416015625,-1.3551181554794312,0.0,0.0,0.0,0.0,0.0,0.0,0.0,0.0,0.0
1639064115.0001886,165522,1639064114,998894568,base_imu,0.0,0.0,0.0,0.0,0.0,0.0,0.0,0.0,0.0,0.0,0.0,0.0,0.0,-0.6605970859527588,2.330798625946045,3.161039113998413,0.0,0.0,0.0,0.0,0.0,0.0,0.0,0.0,0.0,-5.789179801940918,19.612701416015625,0.19393032789230347,0.0,0.0,0.0,0.0,0.0,0.0,0.0,0.0,0.0
1639064115.0147562,165523,1639064115,6929404,base_imu,0.0,0.0,0.0,0.0,0.0,0.0,0.0,0.0,0.0,0.0,0.0,0.0,0.0,-0.918124794960022,2.3575632572174072,3.0226879119873047,0.0,0.0,0.0,0.0,0.0,0.0,0.0,0.0,0.0,-4.309563159942627,19.612701416015625,1.8722656965255737,0.0,0.0,0.0,0.0,0.0,0.0,0.0,0.0,0.0
1639064115.020647,165524,1639064115,18872162,base_imu,0.0,0.0,0.0,0.0,0.0,0.0,0.0,0.0,0.0,0.0,0.0,0.0,0.0,-1.294562578201294,2.7220170497894287,2.9317409992218018,0.0,0.0,0.0,0.0,0.0,0.0,0.0,0.0,0.0,-5.995080947875977,19.612701416015625,4.7141828536987305,0.0,0.0,0.0,0.0,0.0,0.0,0.0,0.0,0.0
1639064115.030529,165525,1639064115,28711962,base_imu,0.0,0.0,0.0,0.0,0.0,0.0,0.0,0.0,0.0,0.0,0.0,0.0,0.0,-1.3511548042297363,2.74731707572937,2.9521141052246094,0.0,0.0,0.0,0.0,0.0,0.0,0.0,0.0,0.0,-8.669404029846191,19.612701416015625,6.617573261260986,0.0,0.0,0.0,0.0,0.0,0.0,0.0,0.0,0.0
1639064115.0438926,165526,1639064115,42536681,base_imu,0.0,0.0,0.0,0.0,0.0,0.0,0.0,0.0,0.0,0.0,0.0,0.0,0.0,-1.6188024282455444,2.7527763843536377,2.9478530883789062,0.0,0.0,0.0,0.0,0.0,0.0,0.0,0.0,0.0,-9.787496566772461,19.612701416015625,6.67024564743042,0.0,0.0,0.0,0.0,0.0,0.0,0.0,0.0,0.0
1639064115.0549505,165527,1639064115,52436481,base_imu,0.0,0.0,0.0,0.0,0.0,0.0,0.0,0.0,0.0,0.0,0.0,0.0,0.0,-1.900431752204895,2.829209089279175,2.869023561477661,0.0,0.0,0.0,0.0,0.0,0.0,0.0,0.0,0.0,-9.911994934082031,19.612701416015625,5.580883979797363,0.0,0.0,0.0,0.0,0.0,0.0,0.0,0.0,0.0
1639064115.0620022,165528,1639064115,59469338,base_imu,0.0,0.0,0.0,0.0,0.0,0.0,0.0,0.0,0.0,0.0,0.0,0.0,0.0,-2.3031017780303955,2.826279640197754,2.446113348007202,0.0,0.0,0.0,0.0,0.0,0.0,0.0,0.0,0.0,-9.205705642700195,19.612701416015625,4.477157115936279,0.0,0.0,0.0,0.0,0.0,0.0,0.0,0.0,0.0
1639064115.0693603,165529,1639064115,66910187,base_imu,0.0,0.0,0.0,0.0,0.0,0.0,0.0,0.0,0.0,0.0,0.0,0.0,0.0,-2.4268054962158203,2.801645517349243,2.0399813652038574,0.0,0.0,0.0,0.0,0.0,0.0,0.0,0.0,0.0,-8.999804496765137,18.41619873046875,3.7277719974517822,0.0,0.0,0.0,0.0,0.0,0.0,0.0,0.0,0.0
1639064115.0893106,165530,1639064115,84864822,base_imu,0.0,0.0,0.0,0.0,0.0,0.0,0.0,0.0,0.0,0.0,0.0,0.0,0.0,-2.4258735179901123,2.7067036628723145,1.5458317995071411,0.0,0.0,0.0,0.0,0.0,0.0,0.0,0.0,0.0,-9.943119049072266,11.994950294494629,2.5761609077453613,0.0,0.0,0.0,0.0,0.0,0.0,0.0,0.0,0.0
1639064115.0939777,165531,1639064115,91650685,base_imu,0.0,0.0,0.0,0.0,0.0,0.0,0.0,0.0,0.0,0.0,0.0,0.0,0.0,-2.4426512718200684,2.6642262935638428,1.5052186250686646,0.0,0.0,0.0,0.0,0.0,0.0,0.0,0.0,0.0,-9.90481185913086,11.051634788513184,2.3942017555236816,0.0,0.0,0.0,0.0,0.0,0.0,0.0,0.0,0.0
1639064115.1040275,165532,1639064115,100035515,base_imu,0.0,0.0,0.0,0.0,0.0,0.0,0.0,0.0,0.0,0.0,0.0,0.0,0.0,-2.4772725105285645,2.475142002105713,1.4190653562545776,0.0,0.0,0.0,0.0,0.0,0.0,0.0,0.0,0.0,-9.557653427124023,8.200140953063965,1.6711527109146118,0.0,0.0,0.0,0.0,0.0,0.0,0.0,0.0,0.0
1639064115.1118553,165533,1639064115,107829356,base_imu,0.0,0.0,0.0,0.0,0.0,0.0,0.0,0.0,0.0,0.0,0.0,0.0,0.0,-2.438123941421509,2.3198795318603516,1.2930978536605835,0.0,0.0,0.0,0.0,0.0,0.0,0.0,0.0,0.0,-9.77791976928711,5.736507415771484,0.33279404044151306,0.0,0.0,0.0,0.0,0.0,0.0,0.0,0.0,0.0
1639064115.1208491,165534,1639064115,118458141,base_imu,0.0,0.0,0.0,0.0,0.0,0.0,0.0,0.0,0.0,0.0,0.0,0.0,0.0,-2.222940444946289,2.094043493270874,1.311340570449829,0.0,0.0,0.0,0.0,0.0,0.0,0.0,0.0,0.0,-9.014169692993164,8.329427719116211,2.9496564865112305,0.0,0.0,0.0,0.0,0.0,0.0,0.0,0.0,0.0
1639064115.1331418,165535,1639064115,127044966,base_imu,0.0,0.0,0.0,0.0,0.0,0.0,0.0,0.0,0.0,0.0,0.0,0.0,0.0,-1.722665786743164,2.001232385635376,1.1383682489395142,0.0,0.0,0.0,0.0,0.0,0.0,0.0,0.0,0.0,-8.327033042907715,3.885789394378662,0.9145850539207458,0.0,0.0,0.0,0.0,0.0,0.0,0.0,0.0,0.0
1639064115.1398938,165536,1639064115,136641772,base_imu,0.0,0.0,0.0,0.0,0.0,0.0,0.0,0.0,0.0,0.0,0.0,0.0,0.0,-1.7314541339874268,1.8570222854614258,1.0471549034118652,0.0,0.0,0.0,0.0,0.0,0.0,0.0,0.0,0.0,-7.089231014251709,1.5753847360610962,-0.21787235140800476,0.0,0.0,0.0,0.0,0.0,0.0,0.0,0.0,0.0
1639064115.1492665,165537,1639064115,146621569,base_imu,0.0,0.0,0.0,0.0,0.0,0.0,0.0,0.0,0.0,0.0,0.0,0.0,0.0,-1.6314524412155151,1.8849854469299316,0.8491489291191101,0.0,0.0,0.0,0.0,0.0,0.0,0.0,0.0,0.0,-6.821080684661865,0.023942016065120697,-0.5841851830482483,0.0,0.0,0.0,0.0,0.0,0.0,0.0,0.0,0.0
1639064115.1593614,165538,1639064115,156670365,base_imu,0.0,0.0,0.0,0.0,0.0,0.0,0.0,0.0,0.0,0.0,0.0,0.0,0.0,-1.5058844089508057,1.857155442237854,0.6647250056266785,0.0,0.0,0.0,0.0,0.0,0.0,0.0,0.0,0.0,-7.017405033111572,-1.1228805780410767,-0.2801215946674347,0.0,0.0,0.0,0.0,0.0,0.0,0.0,0.0,0.0
1639064115.170813,165539,1639064115,167831139,base_imu,0.0,0.0,0.0,0.0,0.0,0.0,0.0,0.0,0.0,0.0,0.0,0.0,0.0,-1.226918339729309,1.754889965057373,0.5213137865066528,0.0,0.0,0.0,0.0,0.0,0.0,0.0,0.0,0.0,-7.206546783447266,-2.4229321479797363,-0.18914192914962769,0.0,0.0,0.0,0.0,0.0,0.0,0.0,0.0,0.0
1639064115.1842458,165540,1639064115,180237887,base_imu,0.0,0.0,0.0,0.0,0.0,0.0,0.0,0.0,0.0,0.0,0.0,0.0,0.0,-0.8523446917533875,1.5855129957199097,0.3882888853549957,0.0,0.0,0.0,0.0,0.0,0.0,0.0,0.0,0.0,-7.4316020011901855,-3.646369218826294,-0.05985504016280174,0.0,0.0,0.0,0.0,0.0,0.0,0.0,0.0,0.0
1639064115.1927745,165541,1639064115,191215664,base_imu,0.0,0.0,0.0,0.0,0.0,0.0,0.0,0.0,0.0,0.0,0.0,0.0,0.0,-0.421178936958313,1.3550163507461548,0.2749713957309723,0.0,0.0,0.0,0.0,0.0,0.0,0.0,0.0,0.0,-7.481880187988281,-4.60165548324585,0.043095629662275314,0.0,0.0,0.0,0.0,0.0,0.0,0.0,0.0,0.0
1639064115.2064393,165542,1639064115,200877468,base_imu,0.0,0.0,0.0,0.0,0.0,0.0,0.0,0.0,0.0,0.0,0.0,0.0,0.0,-0.044075317680835724,1.124253511428833,0.21291972696781158,0.0,0.0,0.0,0.0,0.0,0.0,0.0,0.0,0.0,-7.29034423828125,-5.351040840148926,0.24899697303771973,0.0,0.0,0.0,0.0,0.0,0.0,0.0,0.0,0.0
1639064115.214492,165543,1639064115,210963263,base_imu,0.0,0.0,0.0,0.0,0.0,0.0,0.0,0.0,0.0,0.0,0.0,0.0,0.0,0.4199804961681366,0.8182562589645386,0.16578178107738495,0.0,0.0,0.0,0.0,0.0,0.0,0.0,0.0,0.0,-6.821080684661865,-6.112396717071533,0.2992752194404602,0.0,0.0,0.0,0.0,0.0,0.0,0.0,0.0,0.0
1639064115.223197,165544,1639064115,218668107,base_imu,0.0,0.0,0.0,0.0,0.0,0.0,0.0,0.0,0.0,0.0,0.0,0.0,0.0,0.7601993083953857,0.5668538212776184,0.1366201639175415,0.0,0.0,0.0,0.0,0.0,0.0,0.0,0.0,0.0,-6.165069103240967,-6.603208065032959,0.12449848651885986,0.0,0.0,0.0,0.0,0.0,0.0,0.0,0.0,0.0
1639064115.230269,165545,1639064115,227742923,base_imu,0.0,0.0,0.0,0.0,0.0,0.0,0.0,0.0,0.0,0.0,0.0,0.0,0.0,1.1182613372802734,0.32170987129211426,0.10719223320484161,0.0,0.0,0.0,0.0,0.0,0.0,0.0,0.0,0.0,-5.427655220031738,-7.232883453369141,-0.17477671802043915,0.0,0.0,0.0,0.0,0.0,0.0,0.0,0.0,0.0
1639064115.2385738,165546,1639064115,236643742,base_imu,0.0,0.0,0.0,0.0,0.0,0.0,0.0,0.0,0.0,0.0,0.0,0.0,0.0,1.4735270738601685,0.1564607173204422,0.0348874107003212,0.0,0.0,0.0,0.0,0.0,0.0,0.0,0.0,0.0,-4.948814868927002,-7.469909191131592,-0.15083470940589905,0.0,0.0,0.0,0.0,0.0,0.0,0.0,0.0,0.0
1639064115.2513053,165547,1639064115,248377504,base_imu,0.0,0.0,0.0,0.0,0.0,0.0,0.0,0.0,0.0,0.0,0.0,0.0,0.0,1.7667410373687744,-0.09653958678245544,-0.02822950668632984,0.0,0.0,0.0,0.0,0.0,0.0,0.0,0.0,0.0,-4.3622355461120605,-8.276755332946777,-0.1604115068912506,0.0,0.0,0.0,0.0,0.0,0.0,0.0,0.0,0.0
1639064115.262473,165548,1639064115,260871250,base_imu,0.0,0.0,0.0,0.0,0.0,0.0,0.0,0.0,0.0,0.0,0.0,0.0,0.0,2.062351942062378,-0.37404096126556396,-0.14900386333465576,0.0,0.0,0.0,0.0,0.0,0.0,0.0,0.0,0.0,-3.88818359375,-8.827421188354492,-0.016759412363171577,0.0,0.0,0.0,0.0,0.0,0.0,0.0,0.0,0.0
1639064115.270944,165549,1639064115,269505075,base_imu,0.0,0.0,0.0,0.0,0.0,0.0,0.0,0.0,0.0,0.0,0.0,0.0,0.0,2.285658121109009,-0.6769755482673645,-0.34101778268814087,0.0,0.0,0.0,0.0,0.0,0.0,0.0,0.0,0.0,-3.82114577293396,-8.769960403442383,-0.06224924325942993,0.0,0.0,0.0,0.0,0.0,0.0,0.0,0.0,0.0
1639064115.2845387,165550,1639064115,279938863,base_imu,0.0,0.0,0.0,0.0,0.0,0.0,0.0,0.0,0.0,0.0,0.0,0.0,0.0,2.5662219524383545,-1.0017480850219727,-0.6680539846420288,0.0,0.0,0.0,0.0,0.0,0.0,0.0,0.0,0.0,-4.261679172515869,-7.8314337730407715,-0.7805097699165344,0.0,0.0,0.0,0.0,0.0,0.0,0.0,0.0,0.0
1639064115.2926586,165551,1639064115,290999639,base_imu,0.0,0.0,0.0,0.0,0.0,0.0,0.0,0.0,0.0,0.0,0.0,0.0,0.0,2.7650270462036133,-1.3090767860412598,-1.1229218244552612,0.0,0.0,0.0,0.0,0.0,0.0,0.0,0.0,0.0,-5.377377033233643,-5.633556365966797,-1.7334020137786865,0.0,0.0,0.0,0.0,0.0,0.0,0.0,0.0,0.0
1639064115.3078613,165552,1639064115,299732462,base_imu,0.0,0.0,0.0,0.0,0.0,0.0,0.0,0.0,0.0,0.0,0.0,0.0,0.0,2.7961859703063965,-1.5859124660491943,-1.5338475704193115,0.0,0.0,0.0,0.0,0.0,0.0,0.0,0.0,0.0,-6.763619899749756,-3.6583402156829834,-2.7006595134735107,0.0,0.0,0.0,0.0,0.0,0.0,0.0,0.0,0.0
1639064115.3115113,165553,1639064115,308713279,base_imu,0.0,0.0,0.0,0.0,0.0,0.0,0.0,0.0,0.0,0.0,0.0,0.0,0.0,2.6735475063323975,-1.9244002103805542,-1.951164960861206,0.0,0.0,0.0,0.0,0.0,0.0,0.0,0.0,0.0,-8.937554359436035,-0.5865793824195862,-3.1890766620635986,0.0,0.0,0.0,0.0,0.0,0.0,0.0,0.0,0.0
1639064115.3196301,165554,1639064115,316684118,base_imu,0.0,0.0,0.0,0.0,0.0,0.0,0.0,0.0,0.0,0.0,0.0,0.0,0.0,2.434129238128662,-2.302835464477539,-2.1559619903564453,0.0,0.0,0.0,0.0,0.0,0.0,0.0,0.0,0.0,-10.72602367401123,3.0597896575927734,-3.2321722507476807,0.0,0.0,0.0,0.0,0.0,0.0,0.0,0.0,0.0
1639064115.3330998,165555,1639064115,328049887,base_imu,0.0,0.0,0.0,0.0,0.0,0.0,0.0,0.0,0.0,0.0,0.0,0.0,0.0,2.1189441680908203,-2.7818048000335693,-2.2583606243133545,0.0,0.0,0.0,0.0,0.0,0.0,0.0,0.0,0.0,-13.69962215423584,9.660603523254395,-7.153874397277832,0.0,0.0,0.0,0.0,0.0,0.0,0.0,0.0,0.0
1639064115.3494754,165556,1639064115,340240640,base_imu,0.0,0.0,0.0,0.0,0.0,0.0,0.0,0.0,0.0,0.0,0.0,0.0,0.0,1.7869811058044434,-2.8013792037963867,-2.461693048477173,0.0,0.0,0.0,0.0,0.0,0.0,0.0,0.0,0.0,-15.854403495788574,16.266206741333008,-11.049241065979004,0.0,0.0,0.0,0.0,0.0,0.0,0.0,0.0,0.0
1639064115.3560624,165557,1639064115,350864424,base_imu,0.0,0.0,0.0,0.0,0.0,0.0,0.0,0.0,0.0,0.0,0.0,0.0,0.0,1.7839184999465942,-2.776611804962158,-3.5369441509246826,0.0,0.0,0.0,0.0,0.0,0.0,0.0,0.0,0.0,-19.613300323486328,19.612701416015625,-12.040440559387207,0.0,0.0,0.0,0.0,0.0,0.0,0.0,0.0,0.0
1639064115.370253,165558,1639064115,363832161,base_imu,0.0,0.0,0.0,0.0,0.0,0.0,0.0,0.0,0.0,0.0,0.0,0.0,0.0,2.5656893253326416,-4.1710429191589355,-4.363323211669922,0.0,0.0,0.0,0.0,0.0,0.0,0.0,0.0,0.0,-19.613300323486328,19.612701416015625,-10.14902114868164,0.0,0.0,0.0,0.0,0.0,0.0,0.0,0.0,0.0
1639064115.377842,165559,1639064115,372450986,base_imu,0.0,0.0,0.0,0.0,0.0,0.0,0.0,0.0,0.0,0.0,0.0,0.0,0.0,3.1603732109069824,-4.363323211669922,-4.363323211669922,0.0,0.0,0.0,0.0,0.0,0.0,0.0,0.0,0.0,-17.144878387451172,19.612701416015625,-6.763619899749756,0.0,0.0,0.0,0.0,0.0,0.0,0.0,0.0,0.0
1639064115.3908496,165560,1639064115,380779817,base_imu,0.0,0.0,0.0,0.0,0.0,0.0,0.0,0.0,0.0,0.0,0.0,0.0,0.0,3.263970136642456,-3.7670414447784424,-4.363323211669922,0.0,0.0,0.0,0.0,0.0,0.0,0.0,0.0,0.0,-14.401123046875,19.612701416015625,-3.598484992980957,0.0,0.0,0.0,0.0,0.0,0.0,0.0,0.0,0.0
1639064115.3940675,165561,1639064115,389824633,base_imu,0.0,0.0,0.0,0.0,0.0,0.0,0.0,0.0,0.0,0.0,0.0,0.0,0.0,2.5695509910583496,-2.936933994293213,-4.363323211669922,0.0,0.0,0.0,0.0,0.0,0.0,0.0,0.0,0.0,-12.753911972045898,19.07699966430664,-0.24899697303771973,0.0,0.0,0.0,0.0,0.0,0.0,0.0,0.0,0.0
1639064115.4028254,165562,1639064115,399318441,base_imu,0.0,0.0,0.0,0.0,0.0,0.0,0.0,0.0,0.0,0.0,0.0,0.0,0.0,1.8951054811477661,-2.3415844440460205,-4.363323211669922,0.0,0.0,0.0,0.0,0.0,0.0,0.0,0.0,0.0,-14.92066478729248,18.289306640625,-2.5953145027160645,0.0,0.0,0.0,0.0,0.0,0.0,0.0,0.0,0.0
1639064115.422757,165563,1639064115,417969062,base_imu,0.0,0.0,0.0,0.0,0.0,0.0,0.0,0.0,0.0,0.0,0.0,0.0,0.0,1.8755311965942383,-2.0528976917266846,-3.554654359817505,0.0,0.0,0.0,0.0,0.0,0.0,0.0,0.0,0.0,-18.088193893432617,19.612701416015625,-8.827421188354492,0.0,0.0,0.0,0.0,0.0,0.0,0.0,0.0,0.0
1639064115.4319277,165564,1639064115,426233894,base_imu,0.0,0.0,0.0,0.0,0.0,0.0,0.0,0.0,0.0,0.0,0.0,0.0,0.0,1.792174220085144,-2.165283203125,-3.396329402923584,0.0,0.0,0.0,0.0,0.0,0.0,0.0,0.0,0.0,-17.590200424194336,19.612701416015625,-8.4108304977417,0.0,0.0,0.0,0.0,0.0,0.0,0.0,0.0,0.0
1639064115.4464824,165565,1639064115,432527767,base_imu,0.0,0.0,0.0,0.0,0.0,0.0,0.0,0.0,0.0,0.0,0.0,0.0,0.0,1.5692676305770874,-2.428802967071533,-3.184607982635498,0.0,0.0,0.0,0.0,0.0,0.0,0.0,0.0,0.0,-16.127342224121094,19.612701416015625,-6.672639846801758,0.0,0.0,0.0,0.0,0.0,0.0,0.0,0.0,0.0
1639064115.4536803,165566,1639064115,440300609,base_imu,0.0,0.0,0.0,0.0,0.0,0.0,0.0,0.0,0.0,0.0,0.0,0.0,0.0,1.6165387630462646,-2.4478445053100586,-3.2330775260925293,0.0,0.0,0.0,0.0,0.0,0.0,0.0,0.0,0.0,-14.118607521057129,19.612701416015625,-4.857835292816162,0.0,0.0,0.0,0.0,0.0,0.0,0.0,0.0,0.0
1639064115.4543824,165567,1639064115,451264386,base_imu,0.0,0.0,0.0,0.0,0.0,0.0,0.0,0.0,0.0,0.0,0.0,0.0,0.0,1.6246614456176758,-2.2261364459991455,-3.2834112644195557,0.0,0.0,0.0,0.0,0.0,0.0,0.0,0.0,0.0,-12.878410339355469,17.092205047607422,-3.181894063949585,0.0,0.0,0.0,0.0,0.0,0.0,0.0,0.0,0.0
1639064115.4743,165568,1639064115,460710195,base_imu,0.0,0.0,0.0,0.0,0.0,0.0,0.0,0.0,0.0,0.0,0.0,0.0,0.0,1.4988270998001099,-2.156095266342163,-3.133741617202759,0.0,0.0,0.0,0.0,0.0,0.0,0.0,0.0,0.0,-12.952630996704102,13.567940711975098,-1.9752163887023926,0.0,0.0,0.0,0.0,0.0,0.0,0.0,0.0,0.0
1639064115.4749298,165569,1639064115,470007006,base_imu,0.0,0.0,0.0,0.0,0.0,0.0,0.0,0.0,0.0,0.0,0.0,0.0,0.0,1.3990917205810547,-2.1997711658477783,-2.8740835189819336,0.0,0.0,0.0,0.0,0.0,0.0,0.0,0.0,0.0,-12.0021333694458,11.985373497009277,-2.140416383743286,0.0,0.0,0.0,0.0,0.0,0.0,0.0,0.0,0.0
1639064115.4905715,165570,1639064115,479265818,base_imu,0.0,0.0,0.0,0.0,0.0,0.0,0.0,0.0,0.0,0.0,0.0,0.0,0.0,1.2398346662521362,-2.162886381149292,-2.524144172668457,0.0,0.0,0.0,0.0,0.0,0.0,0.0,0.0,0.0,-9.852139472961426,11.111490249633789,-1.9704279899597168,0.0,0.0,0.0,0.0,0.0,0.0,0.0,0.0,0.0
1639064115.4981194,165571,1639064115,492779544,base_imu,0.0,0.0,0.0,0.0,0.0,0.0,0.0,0.0,0.0,0.0,0.0,0.0,0.0,1.046355962753296,-2.0610203742980957,-2.060887098312378,0.0,0.0,0.0,0.0,0.0,0.0,0.0,0.0,0.0,-7.85537576675415,10.20887565612793,-1.3958195447921753,0.0,0.0,0.0,0.0,0.0,0.0,0.0,0.0,0.0
1639064115.5110352,165572,1639064115,505237291,base_imu,0.0,0.0,0.0,0.0,0.0,0.0,0.0,0.0,0.0,0.0,0.0,0.0,0.0,1.0197243690490723,-2.049302577972412,-1.7113473415374756,0.0,0.0,0.0,0.0,0.0,0.0,0.0,0.0,0.0,-6.433219909667969,9.512163162231445,-0.8786720037460327,0.0,0.0,0.0,0.0,0.0,0.0,0.0,0.0,0.0
1639064115.519353,165573,1639064115,517804036,base_imu,0.0,0.0,0.0,0.0,0.0,0.0,0.0,0.0,0.0,0.0,0.0,0.0,0.0,1.118660807609558,-2.1442441940307617,-1.1142666339874268,0.0,0.0,0.0,0.0,0.0,0.0,0.0,0.0,0.0,-4.19464111328125,7.3885064125061035,-1.0678139925003052,0.0,0.0,0.0,0.0,0.0,0.0,0.0,0.0,0.0
1639064115.5327497,165574,1639064115,530281783,base_imu,0.0,0.0,0.0,0.0,0.0,0.0,0.0,0.0,0.0,0.0,0.0,0.0,0.0,1.0468885898590088,-2.1160147190093994,-0.7178550958633423,0.0,0.0,0.0,0.0,0.0,0.0,0.0,0.0,0.0,-2.205059766769409,6.423643112182617,-2.2697031497955322,0.0,0.0,0.0,0.0,0.0,0.0,0.0,0.0,0.0
1639064115.5453005,165575,1639064115,542743530,base_imu,0.0,0.0,0.0,0.0,0.0,0.0,0.0,0.0,0.0,0.0,0.0,0.0,0.0,0.827044665813446,-1.846103310585022,-0.3681820333003998,0.0,0.0,0.0,0.0,0.0,0.0,0.0,0.0,0.0,0.38786065578460693,6.169857501983643,-4.551377296447754,0.0,0.0,0.0,0.0,0.0,0.0,0.0,0.0,0.0
1639064115.5519063,165576,1639064115,550326376,base_imu,0.0,0.0,0.0,0.0,0.0,0.0,0.0,0.0,0.0,0.0,0.0,0.0,0.0,0.6764429211616516,-1.6470320224761963,-0.12849752604961395,0.0,0.0,0.0,0.0,0.0,0.0,0.0,0.0,0.0,2.123656988143921,6.100425720214844,-5.475539207458496,0.0,0.0,0.0,0.0,0.0,0.0,0.0,0.0,0.0
1639064115.5629911,165577,1639064115,560457170,base_imu,0.0,0.0,0.0,0.0,0.0,0.0,0.0,0.0,0.0,0.0,0.0,0.0,0.0,0.45593318343162537,-1.383245825767517,0.15552860498428345,0.0,0.0,0.0,0.0,0.0,0.0,0.0,0.0,0.0,4.474762916564941,6.335057735443115,-5.671863555908203,0.0,0.0,0.0,0.0,0.0,0.0,0.0,0.0,0.0
1639064115.5764549,165578,1639064115,575017875,base_imu,0.0,0.0,0.0,0.0,0.0,0.0,0.0,0.0,0.0,0.0,0.0,0.0,0.0,0.10479538887739182,-1.0768492221832275,0.5350290536880493,0.0,0.0,0.0,0.0,0.0,0.0,0.0,0.0,0.0,7.534552574157715,6.320692539215088,-5.726930141448975,0.0,0.0,0.0,0.0,0.0,0.0,0.0,0.0,0.0
1639064115.5965054,165579,1639064115,593017510,base_imu,0.0,0.0,0.0,0.0,0.0,0.0,0.0,0.0,0.0,0.0,0.0,0.0,0.0,0.008522115647792816,-0.9488843083381653,0.6803045272827148,0.0,0.0,0.0,0.0,0.0,0.0,0.0,0.0,0.0,8.779537200927734,6.121973514556885,-5.801150798797607,0.0,0.0,0.0,0.0,0.0,0.0,0.0,0.0,0.0
1639064115.6037252,165580,1639064115,595082468,base_imu,0.0,0.0,0.0,0.0,0.0,0.0,0.0,0.0,0.0,0.0,0.0,0.0,0.0,-0.08349010348320007,-0.556334376335144,1.0125339031219482,0.0,0.0,0.0,0.0,0.0,0.0,0.0,0.0,0.0,10.342950820922852,5.032611846923828,-5.434837818145752,0.0,0.0,0.0,0.0,0.0,0.0,0.0,0.0,0.0
1639064115.61539,165581,1639064115,602971308,base_imu,0.0,0.0,0.0,0.0,0.0,0.0,0.0,0.0,0.0,0.0,0.0,0.0,0.0,-0.04367584362626076,-0.29041773080825806,1.1398329734802246,0.0,0.0,0.0,0.0,0.0,0.0,0.0,0.0,0.0,10.268731117248535,4.51067590713501,-5.69819974899292,0.0,0.0,0.0,0.0,0.0,0.0,0.0,0.0,0.0
1639064115.615981,165582,1639064115,614192080,base_imu,0.0,0.0,0.0,0.0,0.0,0.0,0.0,0.0,0.0,0.0,0.0,0.0,0.0,0.0721716657280922,0.23728765547275543,1.3102751970291138,0.0,0.0,0.0,0.0,0.0,0.0,0.0,0.0,0.0,9.44991397857666,4.244919776916504,-5.497087001800537,0.0,0.0,0.0,0.0,0.0,0.0,0.0,0.0,0.0
1639064115.6297648,165583,1639064115,618687989,base_imu,0.0,0.0,0.0,0.0,0.0,0.0,0.0,0.0,0.0,0.0,0.0,0.0,0.0,0.14713965356349945,0.45340317487716675,1.379650592803955,0.0,0.0,0.0,0.0,0.0,0.0,0.0,0.0,0.0,8.647856712341309,4.364629745483398,-5.0900726318359375,0.0,0.0,0.0,0.0,0.0,0.0,0.0,0.0,0.0
1639064115.6445084,165584,1639064115,634707664,base_imu,0.0,0.0,0.0,0.0,0.0,0.0,0.0,0.0,0.0,0.0,0.0,0.0,0.0,0.5175853371620178,0.9735185503959656,1.7124125957489014,0.0,0.0,0.0,0.0,0.0,0.0,0.0,0.0,0.0,5.612008571624756,5.5329999923706055,-3.110067844390869,0.0,0.0,0.0,0.0,0.0,0.0,0.0,0.0,0.0
1639064115.6493683,165585,1639064115,647856397,base_imu,0.0,0.0,0.0,0.0,0.0,0.0,0.0,0.0,0.0,0.0,0.0,0.0,0.0,0.7676562070846558,1.14542555809021,2.181661605834961,0.0,0.0,0.0,0.0,0.0,0.0,0.0,0.0,0.0,3.3231518268585205,7.343016624450684,-2.4684219360351562,0.0,0.0,0.0,0.0,0.0,0.0,0.0,0.0,0.0
1639064115.660041,165586,1639064115,657997191,base_imu,0.0,0.0,0.0,0.0,0.0,0.0,0.0,0.0,0.0,0.0,0.0,0.0,0.0,0.7487477660179138,1.3286510705947876,2.580869436264038,0.0,0.0,0.0,0.0,0.0,0.0,0.0,0.0,0.0,2.0614075660705566,8.425195693969727,-2.6408045291900635,0.0,0.0,0.0,0.0,0.0,0.0,0.0,0.0,0.0
1639064115.6740808,165587,1639064115,668000988,base_imu,0.0,0.0,0.0,0.0,0.0,0.0,0.0,0.0,0.0,0.0,0.0,0.0,0.0,0.4759068787097931,1.566604495048523,2.83400297164917,0.0,0.0,0.0,0.0,0.0,0.0,0.0,0.0,0.0,-0.10534487664699554,9.952695846557617,-2.212242364883423,0.0,0.0,0.0,0.0,0.0,0.0,0.0,0.0,0.0
1639064115.6795447,165588,1639064115,678001785,base_imu,0.0,0.0,0.0,0.0,0.0,0.0,0.0,0.0,0.0,0.0,0.0,0.0,0.0,-0.11811119318008423,1.7403757572174072,3.082608938217163,0.0,0.0,0.0,0.0,0.0,0.0,0.0,0.0,0.0,-4.304774761199951,12.9119291305542,-2.231395959854126,0.0,0.0,0.0,0.0,0.0,0.0,0.0,0.0,0.0
1639064115.6980894,165589,1639064115,695166437,base_imu,0.0,0.0,0.0,0.0,0.0,0.0,0.0,0.0,0.0,0.0,0.0,0.0,0.0,-1.2454272508621216,2.284193277359009,3.4113762378692627,0.0,0.0,0.0,0.0,0.0,0.0,0.0,0.0,0.0,-13.225569725036621,19.612701416015625,-0.651222825050354,0.0,0.0,0.0,0.0,0.0,0.0,0.0,0.0,0.0
1639064115.713933,165590,1639064115,702813281,base_imu,0.0,0.0,0.0,0.0,0.0,0.0,0.0,0.0,0.0,0.0,0.0,0.0,0.0,-1.455417513847351,2.411625623703003,3.554121732711792,0.0,0.0,0.0,0.0,0.0,0.0,0.0,0.0,0.0,-11.860875129699707,19.612701416015625,0.24899697303771973,0.0,0.0,0.0,0.0,0.0,0.0,0.0,0.0,0.0
1639064115.720275,165591,1639064115,716844997,base_imu,0.0,0.0,0.0,0.0,0.0,0.0,0.0,0.0,0.0,0.0,0.0,0.0,0.0,-1.8937737941741943,2.6710174083709717,3.5518579483032227,0.0,0.0,0.0,0.0,0.0,0.0,0.0,0.0,0.0,-7.180210590362549,19.612701416015625,1.7621324062347412,0.0,0.0,0.0,0.0,0.0,0.0,0.0,0.0,0.0
1639064115.7263217,165592,1639064115,723957852,base_imu,0.0,0.0,0.0,0.0,0.0,0.0,0.0,0.0,0.0,0.0,0.0,0.0,0.0,-2.2664833068847656,3.0854053497314453,3.302452802658081,0.0,0.0,0.0,0.0,0.0,0.0,0.0,0.0,0.0,-9.524134635925293,19.612701416015625,2.3702597618103027,0.0,0.0,0.0,0.0,0.0,0.0,0.0,0.0,0.0
1639064115.7342467,165593,1639064115,728580758,base_imu,0.0,0.0,0.0,0.0,0.0,0.0,0.0,0.0,0.0,0.0,0.0,0.0,0.0,-2.2664833068847656,3.0854053497314453,3.302452802658081,0.0,0.0,0.0,0.0,0.0,0.0,0.0,0.0,0.0,0.2621650695800781,-0.13826514780521393,-0.010773907415568829,0.0,0.0,0.0,0.0,0.0,0.0,0.0,0.0,0.0
1639064115.7456164,165594,1639064115,744083444,base_imu,0.0,0.0,0.0,0.0,0.0,0.0,0.0,0.0,0.0,0.0,0.0,0.0,0.0,-3.1521174907684326,3.2417328357696533,2.8578381538391113,0.0,0.0,0.0,0.0,0.0,0.0,0.0,0.0,0.0,-14.235922813415527,19.612701416015625,4.460397720336914,0.0,0.0,0.0,0.0,0.0,0.0,0.0,0.0,0.0
1639064115.7540343,165595,1639064115,750908305,base_imu,0.0,0.0,0.0,0.0,0.0,0.0,0.0,0.0,0.0,0.0,0.0,0.0,0.0,-3.0088393688201904,3.1193606853485107,2.6908578872680664,0.0,0.0,0.0,0.0,0.0,0.0,0.0,0.0,0.0,-14.54716968536377,19.612701416015625,3.0837316513061523,0.0,0.0,0.0,0.0,0.0,0.0,0.0,0.0,0.0
1639064115.7595322,165596,1639064115,758004161,base_imu,0.0,0.0,0.0,0.0,0.0,0.0,0.0,0.0,0.0,0.0,0.0,0.0,0.0,-3.0481209754943848,3.1025826930999756,2.59192156791687,0.0,0.0,0.0,0.0,0.0,0.0,0.0,0.0,0.0,-14.439430236816406,17.07544708251953,1.944091796875,0.0,0.0,0.0,0.0,0.0,0.0,0.0,0.0,0.0
1639064115.770808,165597,1639064115,767999958,base_imu,0.0,0.0,0.0,0.0,0.0,0.0,0.0,0.0,0.0,0.0,0.0,0.0,0.0,-3.361708164215088,2.995124101638794,2.4402544498443604,0.0,0.0,0.0,0.0,0.0,0.0,0.0,0.0,0.0,-12.708422660827637,12.502521514892578,1.6424223184585571,0.0,0.0,0.0,0.0,0.0,0.0,0.0,0.0,0.0
1639064115.7863376,165598,1639064115,784387626,base_imu,0.0,0.0,0.0,0.0,0.0,0.0,0.0,0.0,0.0,0.0,0.0,0.0,0.0,-3.0515830516815186,2.691124200820923,2.032391309738159,0.0,0.0,0.0,0.0,0.0,0.0,0.0,0.0,0.0,-10.591948509216309,8.305485725402832,2.7437551021575928,0.0,0.0,0.0,0.0,0.0,0.0,0.0,0.0,0.0
1639064115.7981353,165599,1639064115,795356403,base_imu,0.0,0.0,0.0,0.0,0.0,0.0,0.0,0.0,0.0,0.0,0.0,0.0,0.0,-2.3873908519744873,2.4580976963043213,1.8483669757843018,0.0,0.0,0.0,0.0,0.0,0.0,0.0,0.0,0.0,-9.890446662902832,6.426037311553955,2.8538882732391357,0.0,0.0,0.0,0.0,0.0,0.0,0.0,0.0,0.0
1639064115.8046052,165600,1639064115,800624296,base_imu,0.0,0.0,0.0,0.0,0.0,0.0,0.0,0.0,0.0,0.0,0.0,0.0,0.0,-2.0718061923980713,2.334127426147461,1.7949706315994263,0.0,0.0,0.0,0.0,0.0,0.0,0.0,0.0,0.0,-9.447519302368164,5.324704647064209,2.4372973442077637,0.0,0.0,0.0,0.0,0.0,0.0,0.0,0.0,0.0
1639064115.82335,165601,1639064115,812519055,base_imu,0.0,0.0,0.0,0.0,0.0,0.0,0.0,0.0,0.0,0.0,0.0,0.0,0.0,-1.6302540302276611,2.043976068496704,1.6713999509811401,0.0,0.0,0.0,0.0,0.0,0.0,0.0,0.0,0.0,-8.29590892791748,3.0310592651367188,1.4867992401123047,0.0,0.0,0.0,0.0,0.0,0.0,0.0,0.0,0.0
1639064115.8294067,165602,1639064115,826383774,base_imu,0.0,0.0,0.0,0.0,0.0,0.0,0.0,0.0,0.0,0.0,0.0,0.0,0.0,-1.126650333404541,1.737845778465271,1.3286510705947876,0.0,0.0,0.0,0.0,0.0,0.0,0.0,0.0,0.0,-8.190564155578613,2.408566951751709,-0.16998831927776337,0.0,0.0,0.0,0.0,0.0,0.0,0.0,0.0,0.0
1639064115.8445404,165603,1639064115,832114657,base_imu,0.0,0.0,0.0,0.0,0.0,0.0,0.0,0.0,0.0,0.0,0.0,0.0,0.0,-0.8970857858657837,1.586844563484192,1.2013520002365112,0.0,0.0,0.0,0.0,0.0,0.0,0.0,0.0,0.0,-8.042123794555664,2.7054479122161865,-0.49559974670410156,0.0,0.0,0.0,0.0,0.0,0.0,0.0,0.0,0.0
1639064115.8535461,165604,1639064115,852244249,base_imu,0.0,0.0,0.0,0.0,0.0,0.0,0.0,0.0,0.0,0.0,0.0,0.0,0.0,-0.43848946690559387,1.4085458517074585,0.8028098940849304,0.0,0.0,0.0,0.0,0.0,0.0,0.0,0.0,0.0,-7.015010833740234,1.6136919260025024,-1.2617442607879639,0.0,0.0,0.0,0.0,0.0,0.0,0.0,0.0,0.0
1639064115.860882,165605,1639064115,856300166,base_imu,0.0,0.0,0.0,0.0,0.0,0.0,0.0,0.0,0.0,0.0,0.0,0.0,0.0,-0.3808320462703705,1.4149374961853027,0.5238437652587891,0.0,0.0,0.0,0.0,0.0,0.0,0.0,0.0,0.0,-7.026981830596924,0.529118537902832,-1.908178687095642,0.0,0.0,0.0,0.0,0.0,0.0,0.0,0.0,0.0
1639064115.8725338,165606,1639064115,865293984,base_imu,0.0,0.0,0.0,0.0,0.0,0.0,0.0,0.0,0.0,0.0,0.0,0.0,0.0,-0.36192360520362854,1.4223943948745728,0.3593935966491699,0.0,0.0,0.0,0.0,0.0,0.0,0.0,0.0,0.0,-6.617573261260986,-0.1149216815829277,-1.8387469053268433,0.0,0.0,0.0,0.0,0.0,0.0,0.0,0.0,0.0
1639064115.8779306,165607,1639064115,875149784,base_imu,0.0,0.0,0.0,0.0,0.0,0.0,0.0,0.0,0.0,0.0,0.0,0.0,0.0,-0.25273397564888,1.3797837495803833,0.16618125140666962,0.0,0.0,0.0,0.0,0.0,0.0,0.0,0.0,0.0,-5.453991413116455,-1.4173673391342163,-1.6280571222305298,0.0,0.0,0.0,0.0,0.0,0.0,0.0,0.0,0.0
1639064115.8831866,165608,1639064115,880441676,base_imu,0.0,0.0,0.0,0.0,0.0,0.0,0.0,0.0,0.0,0.0,0.0,0.0,0.0,-0.16165387630462646,1.3361079692840576,0.08388957381248474,0.0,0.0,0.0,0.0,0.0,0.0,0.0,0.0,0.0,-4.944026470184326,-1.9943699836730957,-1.5849615335464478,0.0,0.0,0.0,0.0,0.0,0.0,0.0,0.0,0.0
1639064115.8892105,165609,1639064115,888005523,base_imu,0.0,0.0,0.0,0.0,0.0,0.0,0.0,0.0,0.0,0.0,0.0,0.0,0.0,-0.016511598601937294,1.288037896156311,-0.05313006415963173,0.0,0.0,0.0,0.0,0.0,0.0,0.0,0.0,0.0,-4.333505153656006,-2.9951462745666504,-1.7549498081207275,0.0,0.0,0.0,0.0,0.0,0.0,0.0,0.0,0.0
1639064115.8994412,165610,1639064115,898017320,base_imu,0.0,0.0,0.0,0.0,0.0,0.0,0.0,0.0,0.0,0.0,0.0,0.0,0.0,0.24660871922969818,1.2066782712936401,-0.3159840703010559,0.0,0.0,0.0,0.0,0.0,0.0,0.0,0.0,0.0,-4.393360137939453,-4.201823711395264,-2.0422539710998535,0.0,0.0,0.0,0.0,0.0,0.0,0.0,0.0,0.0
1639064115.915976,165611,1639064115,914465986,base_imu,0.0,0.0,0.0,0.0,0.0,0.0,0.0,0.0,0.0,0.0,0.0,0.0,0.0,0.662061870098114,0.8033425211906433,-0.6169212460517883,0.0,0.0,0.0,0.0,0.0,0.0,0.0,0.0,0.0,-5.564124584197998,-5.985504150390625,-2.0159177780151367,0.0,0.0,0.0,0.0,0.0,0.0,0.0,0.0,0.0
1639064115.921156,165612,1639064115,918652901,base_imu,0.0,0.0,0.0,0.0,0.0,0.0,0.0,0.0,0.0,0.0,0.0,0.0,0.0,0.7171892523765564,0.6556702852249146,-0.6392918229103088,0.0,0.0,0.0,0.0,0.0,0.0,0.0,0.0,0.0,-5.846640586853027,-6.354211330413818,-1.9033902883529663,0.0,0.0,0.0,0.0,0.0,0.0,0.0,0.0,0.0
1639064115.9295826,165613,1639064115,928028711,base_imu,0.0,0.0,0.0,0.0,0.0,0.0,0.0,0.0,0.0,0.0,0.0,0.0,0.0,0.7707188129425049,0.2954777181148529,-0.598412275314331,0.0,0.0,0.0,0.0,0.0,0.0,0.0,0.0,0.0,-6.378153324127197,-7.513004779815674,-1.5729905366897583,0.0,0.0,0.0,0.0,0.0,0.0,0.0,0.0,0.0
1639064115.9391775,165614,1639064115,937974509,base_imu,0.0,0.0,0.0,0.0,0.0,0.0,0.0,0.0,0.0,0.0,0.0,0.0,0.0,0.8115983605384827,-0.04620584473013878,-0.4592621326446533,0.0,0.0,0.0,0.0,0.0,0.0,0.0,0.0,0.0,-6.088454723358154,-8.494627952575684,-1.2066776752471924,0.0,0.0,0.0,0.0,0.0,0.0,0.0,0.0,0.0
1639064115.9494784,165615,1639064115,948051304,base_imu,0.0,0.0,0.0,0.0,0.0,0.0,0.0,0.0,0.0,0.0,0.0,0.0,0.0,0.8969526290893555,-0.28309401869773865,-0.34021884202957153,0.0,0.0,0.0,0.0,0.0,0.0,0.0,0.0,0.0,-4.881777286529541,-8.901641845703125,-0.8690952062606812,0.0,0.0,0.0,0.0,0.0,0.0,0.0,0.0,0.0
1639064115.959229,165616,1639064115,958008102,base_imu,0.0,0.0,0.0,0.0,0.0,0.0,0.0,0.0,0.0,0.0,0.0,0.0,0.0,1.1145329475402832,-0.39334890246391296,-0.3519367277622223,0.0,0.0,0.0,0.0,0.0,0.0,0.0,0.0,0.0,-3.5051112174987793,-8.815450668334961,-0.5171475410461426,0.0,0.0,0.0,0.0,0.0,0.0,0.0,0.0,0.0
1639064115.9743288,165617,1639064115,973025798,base_imu,0.0,0.0,0.0,0.0,0.0,0.0,0.0,0.0,0.0,0.0,0.0,0.0,0.0,1.7759289741516113,-0.39454731345176697,-0.6442186832427979,0.0,0.0,0.0,0.0,0.0,0.0,0.0,0.0,0.0,-2.762908697128296,-8.195352554321289,-0.5722141861915588,0.0,0.0,0.0,0.0,0.0,0.0,0.0,0.0,0.0
1639064115.9799106,165618,1639064115,978390689,base_imu,0.0,0.0,0.0,0.0,0.0,0.0,0.0,0.0,0.0,0.0,0.0,0.0,0.0,2.021472454071045,-0.44315001368522644,-0.7753793597221375,0.0,0.0,0.0,0.0,0.0,0.0,0.0,0.0,0.0,-3.134010076522827,-7.714117527008057,-1.161187767982483,0.0,0.0,0.0,0.0,0.0,0.0,0.0,0.0,0.0
1639064115.9903235,165619,1639064115,987968494,base_imu,0.0,0.0,0.0,0.0,0.0,0.0,0.0,0.0,0.0,0.0,0.0,0.0,0.0,2.4300012588500977,-0.7146592736244202,-0.9661948680877686,0.0,0.0,0.0,0.0,0.0,0.0,0.0,0.0,0.0,-4.211400508880615,-6.6582746505737305,-1.7357962131500244,0.0,0.0,0.0,0.0,0.0,0.0,0.0,0.0,0.0
1639064115.9993262,165620,1639064115,997986291,base_imu,0.0,0.0,0.0,0.0,0.0,0.0,0.0,0.0,0.0,0.0,0.0,0.0,0.0,2.7076358795166016,-1.2191951274871826,-1.0572749376296997,0.0,0.0,0.0,0.0,0.0,0.0,0.0,0.0,0.0,-5.96874475479126,-6.205770492553711,-2.865859270095825,0.0,0.0,0.0,0.0,0.0,0.0,0.0,0.0,0.0
1639064116.009377,165621,1639064116,8142085,base_imu,0.0,0.0,0.0,0.0,0.0,0.0,0.0,0.0,0.0,0.0,0.0,0.0,0.0,2.7972512245178223,-1.8307900428771973,-0.8888300061225891,0.0,0.0,0.0,0.0,0.0,0.0,0.0,0.0,0.0,-7.271190643310547,-5.805939197540283,-2.1787235736846924,0.0,0.0,0.0,0.0,0.0,0.0,0.0,0.0,0.0
1639064116.0191379,165622,1639064116,17957886,base_imu,0.0,0.0,0.0,0.0,0.0,0.0,0.0,0.0,0.0,0.0,0.0,0.0,0.0,2.8342692852020264,-2.4051008224487305,-0.8175904750823975,0.0,0.0,0.0,0.0,0.0,0.0,0.0,0.0,0.0,-7.656656742095947,-5.592854976654053,-1.6065093278884888,0.0,0.0,0.0,0.0,0.0,0.0,0.0,0.0,0.0
1639064116.0347996,165623,1639064116,33498571,base_imu,0.0,0.0,0.0,0.0,0.0,0.0,0.0,0.0,0.0,0.0,0.0,0.0,0.0,2.721484422683716,-3.0839405059814453,-1.2492889165878296,0.0,0.0,0.0,0.0,0.0,0.0,0.0,0.0,0.0,-10.251971244812012,1.304839849472046,-0.6320692300796509,0.0,0.0,0.0,0.0,0.0,0.0,0.0,0.0,0.0
1639064116.0461583,165624,1639064116,44843341,base_imu,0.0,0.0,0.0,0.0,0.0,0.0,0.0,0.0,0.0,0.0,0.0,0.0,0.0,2.6513099670410156,-3.317499876022339,-1.7180051803588867,0.0,0.0,0.0,0.0,0.0,0.0,0.0,0.0,0.0,-12.82094955444336,14.45858383178711,-3.555389404296875,0.0,0.0,0.0,0.0,0.0,0.0,0.0,0.0,0.0
1639064116.0583801,165625,1639064116,57051094,base_imu,0.0,0.0,0.0,0.0,0.0,0.0,0.0,0.0,0.0,0.0,0.0,0.0,0.0,3.045191526412964,-2.486194133758545,-2.455833911895752,0.0,0.0,0.0,0.0,0.0,0.0,0.0,0.0,0.0,-14.214375495910645,19.612701416015625,-12.107478141784668,0.0,0.0,0.0,0.0,0.0,0.0,0.0,0.0,0.0
1639064116.0708127,165626,1639064116,69486842,base_imu,0.0,0.0,0.0,0.0,0.0,0.0,0.0,0.0,0.0,0.0,0.0,0.0,0.0,1.8570222854614258,-2.3873908519744873,-3.2879385948181152,0.0,0.0,0.0,0.0,0.0,0.0,0.0,0.0,0.0,-11.899182319641113,19.612701416015625,-10.156203269958496,0.0,0.0,0.0,0.0,0.0,0.0,0.0,0.0,0.0
1639064116.0830936,165627,1639064116,79352642,base_imu,0.0,0.0,0.0,0.0,0.0,0.0,0.0,0.0,0.0,0.0,0.0,0.0,0.0,-0.10905644297599792,-1.9104186296463013,-4.2947468757629395,0.0,0.0,0.0,0.0,0.0,0.0,0.0,0.0,0.0,-11.496956825256348,19.612701416015625,-7.383718013763428,0.0,0.0,0.0,0.0,0.0,0.0,0.0,0.0,0.0
1639064116.0924573,165628,1639064116,89806431,base_imu,0.0,0.0,0.0,0.0,0.0,0.0,0.0,0.0,0.0,0.0,0.0,0.0,0.0,-1.1709918975830078,-0.8560731410980225,-4.363323211669922,0.0,0.0,0.0,0.0,0.0,0.0,0.0,0.0,0.0,-15.452177047729492,19.612701416015625,-3.222595453262329,0.0,0.0,0.0,0.0,0.0,0.0,0.0,0.0,0.0
1639064116.100181,165629,1639064116,97265279,base_imu,0.0,0.0,0.0,0.0,0.0,0.0,0.0,0.0,0.0,0.0,0.0,0.0,0.0,-1.7737984657287598,-0.13036173582077026,-4.363323211669922,0.0,0.0,0.0,0.0,0.0,0.0,0.0,0.0,0.0,-19.613300323486328,19.612701416015625,1.0893617868423462,0.0,0.0,0.0,0.0,0.0,0.0,0.0,0.0,0.0
1639064116.110846,165630,1639064116,106965083,base_imu,0.0,0.0,0.0,0.0,0.0,0.0,0.0,0.0,0.0,0.0,0.0,0.0,0.0,-1.696966290473938,-0.27337348461151123,-4.314188003540039,0.0,0.0,0.0,0.0,0.0,0.0,0.0,0.0,0.0,-19.613300323486328,19.612701416015625,1.886630892753601,0.0,0.0,0.0,0.0,0.0,0.0,0.0,0.0,0.0
1639064116.1284926,165631,1639064116,123565747,base_imu,0.0,0.0,0.0,0.0,0.0,0.0,0.0,0.0,0.0,0.0,0.0,0.0,0.0,-0.7480819225311279,-0.7134608626365662,-3.7230992317199707,0.0,0.0,0.0,0.0,0.0,0.0,0.0,0.0,0.0,-19.613300323486328,15.933411598205566,0.7924807667732239,0.0,0.0,0.0,0.0,0.0,0.0,0.0,0.0,0.0
1639064116.1349936,165632,1639064116,129773621,base_imu,0.0,0.0,0.0,0.0,0.0,0.0,0.0,0.0,0.0,0.0,0.0,0.0,0.0,1.680321455001831,-1.4733939170837402,-2.6519758701324463,0.0,0.0,0.0,0.0,0.0,0.0,0.0,0.0,0.0,-18.602947235107422,11.798625946044922,0.3471592366695404,0.0,0.0,0.0,0.0,0.0,0.0,0.0,0.0,0.0
1639064116.1450124,165633,1639064116,136746480,base_imu,0.0,0.0,0.0,0.0,0.0,0.0,0.0,0.0,0.0,0.0,0.0,0.0,0.0,2.4638235569000244,-1.8170747756958008,-2.349440813064575,0.0,0.0,0.0,0.0,0.0,0.0,0.0,0.0,0.0,-16.6612491607666,11.444283485412598,0.28969839215278625,0.0,0.0,0.0,0.0,0.0,0.0,0.0,0.0,0.0
1639064116.1535351,165634,1639064116,143168350,base_imu,0.0,0.0,0.0,0.0,0.0,0.0,0.0,0.0,0.0,0.0,0.0,0.0,0.0,2.867159128189087,-2.080195188522339,-2.208159923553467,0.0,0.0,0.0,0.0,0.0,0.0,0.0,0.0,0.0,-15.717933654785156,11.70046329498291,-0.47644612193107605,0.0,0.0,0.0,0.0,0.0,0.0,0.0,0.0,0.0
1639064116.161686,165635,1639064116,157849052,base_imu,0.0,0.0,0.0,0.0,0.0,0.0,0.0,0.0,0.0,0.0,0.0,0.0,0.0,3.2045817375183105,-2.4953818321228027,-1.9944413900375366,0.0,0.0,0.0,0.0,0.0,0.0,0.0,0.0,0.0,-13.613430976867676,12.689269065856934,-0.9217676520347595,0.0,0.0,0.0,0.0,0.0,0.0,0.0,0.0,0.0
1639064116.1730037,165636,1639064116,166884869,base_imu,0.0,0.0,0.0,0.0,0.0,0.0,0.0,0.0,0.0,0.0,0.0,0.0,0.0,3.139467477798462,-2.635331153869629,-1.7712684869766235,0.0,0.0,0.0,0.0,0.0,0.0,0.0,0.0,0.0,-9.952695846557617,14.00368595123291,-1.886630892753601,0.0,0.0,0.0,0.0,0.0,0.0,0.0,0.0,0.0
1639064116.1825986,165637,1639064116,176642672,base_imu,0.0,0.0,0.0,0.0,0.0,0.0,0.0,0.0,0.0,0.0,0.0,0.0,0.0,2.9072399139404297,-2.4917867183685303,-1.6258598566055298,0.0,0.0,0.0,0.0,0.0,0.0,0.0,0.0,0.0,-7.374141216278076,14.049175262451172,-2.252943754196167,0.0,0.0,0.0,0.0,0.0,0.0,0.0,0.0,0.0
1639064116.1871285,165638,1639064116,182874546,base_imu,0.0,0.0,0.0,0.0,0.0,0.0,0.0,0.0,0.0,0.0,0.0,0.0,0.0,2.655970573425293,-2.3675501346588135,-1.522129774093628,0.0,0.0,0.0,0.0,0.0,0.0,0.0,0.0,0.0,-6.380547523498535,13.357251167297363,-2.142810583114624,0.0,0.0,0.0,0.0,0.0,0.0,0.0,0.0,0.0
1639064116.205326,165639,1639064116,188660428,base_imu,0.0,0.0,0.0,0.0,0.0,0.0,0.0,0.0,0.0,0.0,0.0,0.0,0.0,2.1889853477478027,-2.1836588382720947,-1.27019464969635,0.0,0.0,0.0,0.0,0.0,0.0,0.0,0.0,0.0,-4.747702121734619,12.641385078430176,-2.5282769203186035,0.0,0.0,0.0,0.0,0.0,0.0,0.0,0.0,0.0
1639064116.214504,165640,1639064116,209915998,base_imu,0.0,0.0,0.0,0.0,0.0,0.0,0.0,0.0,0.0,0.0,0.0,0.0,0.0,1.2436962127685547,-1.8168084621429443,-0.7348992824554443,0.0,0.0,0.0,0.0,0.0,0.0,0.0,0.0,0.0,-1.9153612852096558,10.706870079040527,-3.002328872680664,0.0,0.0,0.0,0.0,0.0,0.0,0.0,0.0,0.0
1639064116.2207537,165641,1639064116,216540864,base_imu,0.0,0.0,0.0,0.0,0.0,0.0,0.0,0.0,0.0,0.0,0.0,0.0,0.0,1.010270118713379,-1.7504957914352417,-0.6591323614120483,0.0,0.0,0.0,0.0,0.0,0.0,0.0,0.0,0.0,-1.403002142906189,10.0580415725708,-2.9328970909118652,0.0,0.0,0.0,0.0,0.0,0.0,0.0,0.0,0.0
1639064116.2306726,165642,1639064116,222685739,base_imu,0.0,0.0,0.0,0.0,0.0,0.0,0.0,0.0,0.0,0.0,0.0,0.0,0.0,0.3880225718021393,-1.5331817865371704,-0.5294364094734192,0.0,0.0,0.0,0.0,0.0,0.0,0.0,0.0,0.0,0.14844051003456116,8.322244644165039,-3.043030261993408,0.0,0.0,0.0,0.0,0.0,0.0,0.0,0.0,0.0
1639064116.2391083,165643,1639064116,232732536,base_imu,0.0,0.0,0.0,0.0,0.0,0.0,0.0,0.0,0.0,0.0,0.0,0.0,0.0,-0.010785802267491817,-1.3096094131469727,-0.572712779045105,0.0,0.0,0.0,0.0,0.0,0.0,0.0,0.0,0.0,1.2880804538726807,7.043741226196289,-3.49314022064209,0.0,0.0,0.0,0.0,0.0,0.0,0.0,0.0,0.0
1639064116.2478511,165644,1639064116,244235303,base_imu,0.0,0.0,0.0,0.0,0.0,0.0,0.0,0.0,0.0,0.0,0.0,0.0,0.0,-0.5577991008758545,-1.0602043867111206,-0.7008108496665955,0.0,0.0,0.0,0.0,0.0,0.0,0.0,0.0,0.0,1.9225438833236694,6.256049156188965,-3.8570587635040283,0.0,0.0,0.0,0.0,0.0,0.0,0.0,0.0,0.0
1639064116.259763,165645,1639064116,253872108,base_imu,0.0,0.0,0.0,0.0,0.0,0.0,0.0,0.0,0.0,0.0,0.0,0.0,0.0,-1.2145346403121948,-0.833702564239502,-0.6185191869735718,0.0,0.0,0.0,0.0,0.0,0.0,0.0,0.0,0.0,2.3989901542663574,6.0405707359313965,-4.043806552886963,0.0,0.0,0.0,0.0,0.0,0.0,0.0,0.0,0.0
1639064116.2676718,165646,1639064116,263462913,base_imu,0.0,0.0,0.0,0.0,0.0,0.0,0.0,0.0,0.0,0.0,0.0,0.0,0.0,-1.3492906093597412,-0.8066715002059937,-0.42450788617134094,0.0,0.0,0.0,0.0,0.0,0.0,0.0,0.0,0.0,2.7054479122161865,5.73171854019165,-3.5865139961242676,0.0,0.0,0.0,0.0,0.0,0.0,0.0,0.0,0.0
1639064116.2855394,165647,1639064116,272317734,base_imu,0.0,0.0,0.0,0.0,0.0,0.0,0.0,0.0,0.0,0.0,0.0,0.0,0.0,-1.2566125392913818,-0.8241152167320251,0.04194478690624237,0.0,0.0,0.0,0.0,0.0,0.0,0.0,0.0,0.0,3.8307225704193115,4.541800498962402,-3.090914249420166,0.0,0.0,0.0,0.0,0.0,0.0,0.0,0.0,0.0
1639064116.2942502,165648,1639064116,289259391,base_imu,0.0,0.0,0.0,0.0,0.0,0.0,0.0,0.0,0.0,0.0,0.0,0.0,0.0,-0.7882956862449646,-0.6494118571281433,0.7844340801239014,0.0,0.0,0.0,0.0,0.0,0.0,0.0,0.0,0.0,5.983109951019287,0.507570743560791,-3.9911341667175293,0.0,0.0,0.0,0.0,0.0,0.0,0.0,0.0,0.0
1639064116.303683,165649,1639064116,298333207,base_imu,0.0,0.0,0.0,0.0,0.0,0.0,0.0,0.0,0.0,0.0,0.0,0.0,0.0,-0.6170544028282166,-0.5162537693977356,1.0058759450912476,0.0,0.0,0.0,0.0,0.0,0.0,0.0,0.0,0.0,6.581660270690918,-0.5243301391601562,-4.106055736541748,0.0,0.0,0.0,0.0,0.0,0.0,0.0,0.0,0.0
1639064116.3174748,165650,1639064116,306401044,base_imu,0.0,0.0,0.0,0.0,0.0,0.0,0.0,0.0,0.0,0.0,0.0,0.0,0.0,-0.3281014561653137,-0.3443467319011688,1.3283847570419312,0.0,0.0,0.0,0.0,0.0,0.0,0.0,0.0,0.0,6.892906665802002,-1.3335703611373901,-3.6343982219696045,0.0,0.0,0.0,0.0,0.0,0.0,0.0,0.0,0.0
1639064116.3228507,165651,1639064116,318343802,base_imu,0.0,0.0,0.0,0.0,0.0,0.0,0.0,0.0,0.0,0.0,0.0,0.0,0.0,-0.0030626351945102215,-0.2376871258020401,1.5912387371063232,0.0,0.0,0.0,0.0,0.0,0.0,0.0,0.0,0.0,6.629544258117676,-1.1492167711257935,-3.3710360527038574,0.0,0.0,0.0,0.0,0.0,0.0,0.0,0.0,0.0
1639064116.3357813,165652,1639064116,329196582,base_imu,0.0,0.0,0.0,0.0,0.0,0.0,0.0,0.0,0.0,0.0,0.0,0.0,0.0,0.36977991461753845,-0.17643442749977112,1.8559569120407104,0.0,0.0,0.0,0.0,0.0,0.0,0.0,0.0,0.0,5.829881191253662,-0.043095629662275314,-2.892195701599121,0.0,0.0,0.0,0.0,0.0,0.0,0.0,0.0,0.0
1639064116.3458052,165653,1639064116,337851407,base_imu,0.0,0.0,0.0,0.0,0.0,0.0,0.0,0.0,0.0,0.0,0.0,0.0,0.0,0.7724498510360718,-0.024501081556081772,2.1110877990722656,0.0,0.0,0.0,0.0,0.0,0.0,0.0,0.0,0.0,5.204994201660156,1.8579005002975464,-2.940079689025879,0.0,0.0,0.0,0.0,0.0,0.0,0.0,0.0,0.0
1639064116.351782,165654,1639064116,344349275,base_imu,0.0,0.0,0.0,0.0,0.0,0.0,0.0,0.0,0.0,0.0,0.0,0.0,0.0,0.955409049987793,0.05552690848708153,2.2531673908233643,0.0,0.0,0.0,0.0,0.0,0.0,0.0,0.0,0.0,4.853046894073486,3.0406360626220703,-3.251325845718384,0.0,0.0,0.0,0.0,0.0,0.0,0.0,0.0,0.0
1639064116.3667529,165655,1639064116,364805861,base_imu,0.0,0.0,0.0,0.0,0.0,0.0,0.0,0.0,0.0,0.0,0.0,0.0,0.0,1.176185131072998,0.28842034935951233,2.4435834884643555,0.0,0.0,0.0,0.0,0.0,0.0,0.0,0.0,0.0,4.752490520477295,4.553771495819092,-3.624821424484253,0.0,0.0,0.0,0.0,0.0,0.0,0.0,0.0,0.0
1639064116.3784535,165656,1639064116,370669742,base_imu,0.0,0.0,0.0,0.0,0.0,0.0,0.0,0.0,0.0,0.0,0.0,0.0,0.0,0.9703227281570435,0.8584699630737305,2.796452283859253,0.0,0.0,0.0,0.0,0.0,0.0,0.0,0.0,0.0,4.2760443687438965,9.81143856048584,-2.358288526535034,0.0,0.0,0.0,0.0,0.0,0.0,0.0,0.0,0.0
1639064116.3868134,165657,1639064116,380411545,base_imu,0.0,0.0,0.0,0.0,0.0,0.0,0.0,0.0,0.0,0.0,0.0,0.0,0.0,0.13355752825737,0.9871006608009338,3.085937976837158,0.0,0.0,0.0,0.0,0.0,0.0,0.0,0.0,0.0,2.8347346782684326,14.3795747756958,0.3232172131538391,0.0,0.0,0.0,0.0,0.0,0.0,0.0,0.0,0.0
1639064116.3991191,165658,1639064116,391921311,base_imu,0.0,0.0,0.0,0.0,0.0,0.0,0.0,0.0,0.0,0.0,0.0,0.0,0.0,-0.777509868144989,1.376055359840393,3.339071273803711,0.0,0.0,0.0,0.0,0.0,0.0,0.0,0.0,0.0,-2.054224967956543,19.612701416015625,0.23942016065120697,0.0,0.0,0.0,0.0,0.0,0.0,0.0,0.0,0.0
1639064116.409013,165659,1639064116,404349060,base_imu,0.0,0.0,0.0,0.0,0.0,0.0,0.0,0.0,0.0,0.0,0.0,0.0,0.0,-1.6116119623184204,2.6411900520324707,3.050784111022949,0.0,0.0,0.0,0.0,0.0,0.0,0.0,0.0,0.0,-11.116278648376465,19.612701416015625,-1.4891934394836426,0.0,0.0,0.0,0.0,0.0,0.0,0.0,0.0,0.0
1639064116.4183667,165660,1639064116,413341878,base_imu,0.0,0.0,0.0,0.0,0.0,0.0,0.0,0.0,0.0,0.0,0.0,0.0,0.0,-1.7824537754058838,3.505918502807617,2.799781322479248,0.0,0.0,0.0,0.0,0.0,0.0,0.0,0.0,0.0,-10.831368446350098,19.612701416015625,-1.1468225717544556,0.0,0.0,0.0,0.0,0.0,0.0,0.0,0.0,0.0
1639064116.4284275,165661,1639064116,422354695,base_imu,0.0,0.0,0.0,0.0,0.0,0.0,0.0,0.0,0.0,0.0,0.0,0.0,0.0,-2.4393224716186523,3.5057852268218994,2.350506067276001,0.0,0.0,0.0,0.0,0.0,0.0,0.0,0.0,0.0,-8.722076416015625,19.612701416015625,2.408566951751709,0.0,0.0,0.0,0.0,0.0,0.0,0.0,0.0,0.0
1639064116.4450352,165662,1639064116,431442511,base_imu,0.0,0.0,0.0,0.0,0.0,0.0,0.0,0.0,0.0,0.0,0.0,0.0,0.0,-3.1093738079071045,4.0892839431762695,2.026798725128174,0.0,0.0,0.0,0.0,0.0,0.0,0.0,0.0,0.0,-10.742782592773438,19.612701416015625,3.5482068061828613,0.0,0.0,0.0,0.0,0.0,0.0,0.0,0.0,0.0
1639064116.455483,165663,1639064116,449438146,base_imu,0.0,0.0,0.0,0.0,0.0,0.0,0.0,0.0,0.0,0.0,0.0,0.0,0.0,-2.9832730293273926,3.9031288623809814,1.7863153219223022,0.0,0.0,0.0,0.0,0.0,0.0,0.0,0.0,0.0,-14.824896812438965,19.612701416015625,7.134720802307129,0.0,0.0,0.0,0.0,0.0,0.0,0.0,0.0,0.0
1639064116.456126,165664,1639064116,454319048,base_imu,0.0,0.0,0.0,0.0,0.0,0.0,0.0,0.0,0.0,0.0,0.0,0.0,0.0,-2.896986722946167,3.6650424003601074,1.7743310928344727,0.0,0.0,0.0,0.0,0.0,0.0,0.0,0.0,0.0,-14.937423706054688,19.612701416015625,6.392518520355225,0.0,0.0,0.0,0.0,0.0,0.0,0.0,0.0,0.0
1639064116.4794426,165665,1639064116,460560921,base_imu,0.0,0.0,0.0,0.0,0.0,0.0,0.0,0.0,0.0,0.0,0.0,0.0,0.0,-2.906174421310425,3.292332887649536,1.820403814315796,0.0,0.0,0.0,0.0,0.0,0.0,0.0,0.0,0.0,-13.745111465454102,17.19515609741211,4.661510467529297,0.0,0.0,0.0,0.0,0.0,0.0,0.0,0.0,0.0
1639064116.4801245,165666,1639064116,468264765,base_imu,0.0,0.0,0.0,0.0,0.0,0.0,0.0,0.0,0.0,0.0,0.0,0.0,0.0,-3.086470603942871,2.996455669403076,1.8603512048721313,0.0,0.0,0.0,0.0,0.0,0.0,0.0,0.0,0.0,-9.6989107131958,13.08910083770752,2.43011474609375,0.0,0.0,0.0,0.0,0.0,0.0,0.0,0.0,0.0
1639064116.4841044,165667,1639064116,480241523,base_imu,0.0,0.0,0.0,0.0,0.0,0.0,0.0,0.0,0.0,0.0,0.0,0.0,0.0,-2.964364528656006,2.9834063053131104,1.7160078287124634,0.0,0.0,0.0,0.0,0.0,0.0,0.0,0.0,0.0,-7.711723327636719,8.003816604614258,1.192312479019165,0.0,0.0,0.0,0.0,0.0,0.0,0.0,0.0,0.0
1639064116.5022712,165668,1639064116,489585333,base_imu,0.0,0.0,0.0,0.0,0.0,0.0,0.0,0.0,0.0,0.0,0.0,0.0,0.0,-2.7549068927764893,3.0140326023101807,1.5482287406921387,0.0,0.0,0.0,0.0,0.0,0.0,0.0,0.0,0.0,-8.65743350982666,5.1547160148620605,1.4460978507995605,0.0,0.0,0.0,0.0,0.0,0.0,0.0,0.0,0.0
1639064116.509536,165669,1639064116,498156160,base_imu,0.0,0.0,0.0,0.0,0.0,0.0,0.0,0.0,0.0,0.0,0.0,0.0,0.0,-2.536128282546997,2.844122886657715,1.4883075952529907,0.0,0.0,0.0,0.0,0.0,0.0,0.0,0.0,0.0,-9.88086986541748,3.3207576274871826,1.5538368225097656,0.0,0.0,0.0,0.0,0.0,0.0,0.0,0.0,0.0
1639064116.5101838,165670,1639064116,508292954,base_imu,0.0,0.0,0.0,0.0,0.0,0.0,0.0,0.0,0.0,0.0,0.0,0.0,0.0,-2.35583233833313,2.5137577056884766,1.8174742460250854,0.0,0.0,0.0,0.0,0.0,0.0,0.0,0.0,0.0,-7.704540729522705,5.920860767364502,3.598484992980957,0.0,0.0,0.0,0.0,0.0,0.0,0.0,0.0,0.0
1639064116.5334954,165671,1639064116,524516626,base_imu,0.0,0.0,0.0,0.0,0.0,0.0,0.0,0.0,0.0,0.0,0.0,0.0,0.0,-1.1932293176651,2.016146183013916,1.4020211696624756,0.0,0.0,0.0,0.0,0.0,0.0,0.0,0.0,0.0,-11.894393920898438,1.036689281463623,-0.011971008032560349,0.0,0.0,0.0,0.0,0.0,0.0,0.0,0.0,0.0
1639064116.5434504,165672,1639064116,535436405,base_imu,0.0,0.0,0.0,0.0,0.0,0.0,0.0,0.0,0.0,0.0,0.0,0.0,0.0,-0.7097324132919312,1.6104135513305664,1.520664930343628,0.0,0.0,0.0,0.0,0.0,0.0,0.0,0.0,0.0,-9.981427192687988,0.7924807667732239,-0.3687070608139038,0.0,0.0,0.0,0.0,0.0,0.0,0.0,0.0,0.0
